"sex","age","sub_of_study_grouped","level_of_educ","urban","eu_active","nat_active","loc_active","not_active","salience","left_right","voting_eu","voting_nat","voting_kom","aff_1","aff_2","aff_3","aff_4","aff_5","aff_6","aff_7","aff_8","aff_9","aff_10","aff_11","aff_12","aff_13","aff_14","aff_15","aff_16","aff_17","aff_18","aff_19","aff_20","dem_eu_1","dem_eu_2","dem_eu_3","dem_eu_4","dem_eu_5","dem_eu_6","dem_eu_7","dem_eu_8","dem_eu_9","dem_eu_10","dem_nat_1","dem_nat_2","dem_nat_3","dem_nat_4","dem_nat_5","dem_nat_6","dem_nat_7","dem_nat_8","dem_nat_9","dem_nat_10","dem_loc_1","dem_loc_2","dem_loc_3","dem_loc_4","dem_loc_5","dem_loc_6","dem_loc_7","dem_loc_8","dem_loc_9","dem_loc_10","input_eu_1","input_eu_2","input_eu_3","input_nat_1","input_nat_2","input_nat_3","input_loc_1","input_loc_2","input_loc_3","trust_eu","trust_nat","trust_loc","soc_trust","int_loc_1","int_loc_2","int_loc_3","int_loc_4","int_loc_5","int_nat_1","int_nat_2","int_nat_3","int_nat_4","int_nat_5","int_eu_1","int_eu_2","int_eu_3","int_eu_4","int_eu_5","ex_nat","ex_eu","ex_loc","eu_int","tv","radio","internet","social_media","read","climate","immigration","abilities","sub_of_study_not_grouped","participant.payoff","iaps.1.player.id_in_group","iaps.1.player.valence_response","iaps.1.player.arousal_response","treatment","iaps.1.player.iaps_image","iaps.1.group.id_in_subsession","iaps.1.subsession.round_number","iaps.2.player.id_in_group","iaps.2.player.valence_response","iaps.2.player.arousal_response","iaps.2.player.iaps_image","iaps.2.group.id_in_subsession","iaps.2.subsession.round_number","iaps.3.player.id_in_group","iaps.3.player.valence_response","iaps.3.player.arousal_response","iaps.3.player.iaps_image","iaps.3.group.id_in_subsession","iaps.3.subsession.round_number","iaps.4.player.id_in_group","iaps.4.player.valence_response","iaps.4.player.arousal_response","iaps.4.player.iaps_image","iaps.4.group.id_in_subsession","iaps.4.subsession.round_number","iaps.5.player.id_in_group","iaps.5.player.valence_response","iaps.5.player.arousal_response","iaps.5.player.iaps_image","iaps.5.group.id_in_subsession","iaps.5.subsession.round_number","iaps.6.player.id_in_group","iaps.6.player.valence_response","iaps.6.player.arousal_response","iaps.6.player.iaps_image","iaps.6.group.id_in_subsession","iaps.6.subsession.round_number","public_goods.1.player.id_in_group","contribution","public_goods.1.player.payoff","public_goods.1.group.id_in_subsession","public_goods.1.group.total_contribution","public_goods.1.group.individual_share","public_goods.1.subsession.round_number","iaps.1.eda","iaps.1.eda.zscore","iaps.2.eda","iaps.2.eda.zscore","iaps.3.eda","iaps.3.eda.zscore","iaps.4.eda","iaps.4.eda.zscore","iaps.5.eda","iaps.5.eda.zscore","iaps.6.eda","iaps.6.eda.zscore","pid","tolerating","tolerating.normalized","concealing","concealing.normalized","adjusting","adjusting.normalized","adjusting_with8","adjusting_with8.normalized","fa.tolerating","fa.concealing","fa.adjusting","fa.tolerating.normalized","fa.concealing.normalized","fa.adjusting.normalized","trust_index"
"Male",21,"filosofi",0,2,1,1,0,"Inactive",3,3,2,1,2,5,4,4,5,3,3,3,3,5,3,5,4,5,3,4,2,4,2,3,4,2,2,2,3,2,3,2,2,2,1,2,2,2,3,1,1,2,2,2,1,3,3,1,2,1,1,2,2,1,1,4,5,3,4,3,3,3,3,3,8,9,5,7,3,4,3,2,2,4,4,4,3,2,4,4,4,5,2,2,3,3,10,1,2,4,4,3,8,9,0,"filosofi",152.5,1,1,3,"Fear",1052,1,1,1,3,2,5970,1,2,1,1,3,1110,1,3,1,2,4,3280,1,4,1,1,2,1930,1,5,1,3,2,1302,1,6,1,100,152.5,1,150,112.5,1,3.58653129390037,11.9187040669811,0.225001347666608,0.736649870612514,0.492529403884016,1.63276736150897,0.933233239526473,3.09518918327489,1.3607303532528,4.52575264960475,0.305927813290596,1.01376245309003,"4a273bfae695cc1e5d5543361236524c6e44e9d66b1a796f777a146386291056",19,70,31,71.875,21,62.5,24,60.7142857142857,8.67,22.98,7.84,65.979381443299,79.6448087431694,51.5625,22
"Female",21,"biologi",0,2,0,1,0,"Inactive",4,8,2,1,2,4,5,5,5,5,1,4,2,5,5,5,3,5,2,5,5,2,1,4,5,5,3,2,5,5,5,1,1,2,4,3,3,2,5,5,5,1,1,2,1,3,3,3,5,5,5,1,1,2,1,1,1,1,2,1,2,3,2,1,2,3,4,2,4,4,4,4,1,4,5,4,5,2,2,1,1,2,1,3,5,1,1,4,99,4,4,1,9,10,0,"molekylær biologi",202.5,2,1,NA,"Fear",1302,1,1,2,NA,5,3280,1,2,2,3,NA,1110,1,3,2,NA,5,1052,1,4,2,3,2,5970,1,5,2,NA,5,1930,1,6,2,50,202.5,1,150,112.5,1,2.94855029439224,6.21759626568666,0.957381556593589,2.0208734032898,1.25089393832155,2.64593456361841,0.044294865428958,0.0838998144604812,0.721464068971496,1.51114425264813,0.660665916846585,1.40699757552308,"66cdfed52c9c87d41eac705b2cbaac2216382c08550ca01f589e57ead52b0b4e",15,50,35,84.375,26,83.3333333333333,28,75,5.54,25.4,10.08,39.0893470790378,90.6648451730419,73.4375,9
"Female",24,"samfundsfag",1,1,1,0,0,"Inactive",4,6,1,1,0,5,4,4,4,5,2,5,2,5,5,5,5,4,2,5,4,5,5,4,3,5,2,3,2,1,1,3,1,1,1,5,2,3,1,1,1,3,1,1,1,5,2,3,1,1,1,3,1,1,1,5,4,3,3,3,5,4,3,3,10,9,10,10,5,5,5,3,1,4,5,2,5,1,5,5,2,5,1,4,3,1,10,1,2,3,1,4,10,10,0,"public policy",195,5,4,1,"Joy",1670,1,1,5,4,1,2050,1,2,5,4,1,1463,1,3,5,3,1,2370,1,4,5,3,1,2341,1,5,5,4,1,2091,1,6,1,80,195,3,180,135,1,0.389692458929361,6.1017925307816,0.33434688993123,5.20870785506433,0.176114243629264,2.75684380044853,0.0225145548239715,0.339076671047214,0.122382492039996,1.8930837068564,0.0611319014918063,0.964362893712859,"80aae1b387d7afd377d71f2128d4bb36c1fdcb08af9b735d8f276e5d192d55ac",18,65,37,90.625,26,83.3333333333333,28,75,7.41,24.77,11.32,55.1546391752577,87.7959927140255,85.546875,29
"Male",22,"økonomi",0,1,0,0,0,"Active",4,4,1,1,1,3,5,5,4,3,2,4,2,4,3,5,1,4,1,5,3,4,3,3,4,3,2,4,1,5,3,1,2,2,1,3,1,5,3,2,4,1,1,1,1,4,1,2,3,2,4,3,1,2,1,4,3,3,3,3,2,4,3,1,7,7,5,8,3,3,2,2,1,4,4,3,4,1,4,3,3,5,1,2,3,1,5,3,3,2,2,2,6,10,0,"matematik-økonomi",190,3,4,NA,"Joy",2370,1,1,3,3,NA,1463,1,2,3,4,NA,2341,1,3,3,5,NA,2050,1,4,3,4,NA,2091,1,5,3,NA,1,1670,1,6,1,100,190,2,200,150,1,1.92192537638039,9.33464399734209,0.756481125959443,3.63564882692327,0.221667672184353,1.06494603046283,1.50167359926352,7.25462828458595,0.0556005814652832,0.281758609223987,0.183427460419885,0.873201376244359,"d8cb999981265d4269c6a4fc8211ffba39039bfd726d2ea76c61ac2400588aa2",17,60,29,65.625,20,58.3333333333333,22,53.5714285714286,7.52,21.53,6.78,56.0996563573883,73.0418943533697,41.2109375,19
"Female",21,"økonomi",0,1,0,0,0,"Active",2,6,0,1,1,1,1,1,2,4,3,1,4,1,1,4,3,1,3,1,2,2,1,2,4,5,5,4,3,2,4,4,3,3,1,5,5,4,3,2,2,3,3,3,1,3,3,3,3,2,2,3,4,4,1,3,3,2,3,3,2,4,4,3,4,6,7,9,2,2,1,1,2,1,3,1,2,2,2,2,1,1,2,3,4,2,6,2,1,2,2,1,6,7,0,"erhvervsøkonomi",190,4,2,3,"Fear",5970,1,1,4,2,5,1302,1,2,4,3,3,1110,1,3,4,1,5,1930,1,4,4,3,2,3280,1,5,4,2,4,1052,1,6,2,100,190,2,200,150,1,0.64448149747691,2.85452923268414,0.268496898810855,1.19622554734166,1.4913125507072,6.66273046001822,0.986502921446029,4.35547472592154,0.407366412167844,1.82398241424484,0.794846923429078,3.54049888496564,"7b988ee04153b734153f0d445b6a27e017391951ce3ade6bcac0ec77c3ceb31d",13,40,14,18.75,11,20.8333333333333,15,28.5714285714286,5.46,7.23,5.36,38.4020618556701,7.92349726775956,27.34375,17
"Female",22,"biologi",0,2,0,0,0,"Active",1,NA,0,1,0,5,5,3,5,4,2,4,3,4,4,3,2,4,3,4,2,2,3,2,2,5,5,5,1,4,5,1,5,5,5,5,5,5,1,5,5,1,5,5,5,5,5,5,1,5,5,1,5,5,5,3,3,1,3,3,1,3,3,1,NA,NA,NA,3,1,1,1,1,4,1,1,1,1,5,1,1,1,1,5,3,5,2,3,1,1,2,1,3,8,3,0,"biologi",175,6,2,4,"Disgust",3140,1,1,6,2,4,2352.2,1,2,6,2,4,3010,1,3,6,2,5,3150,1,4,6,2,4,3400,1,5,6,3,3,3000,1,6,2,100,175,3,180,135,1,0.621439779805108,6.88358467332765,0.774513675363947,8.58587571418082,0.194970384557516,2.16734863858487,0.268948348546173,2.98061830302165,0.0853110401214048,0.940934467624722,0.374810985602217,4.15293156985044,"b34853fcb3cbefa7445385fe6cf001fb015804ae4d6ac8ab1f8cbfda386d689f",13,40,30,68.75,20,58.3333333333333,23,57.1428571428571,5.24,22.34,5.96,36.5120274914089,76.7304189435336,33.203125,NA
"Male",26,"økonomi",1,1,0,1,1,"Inactive",4,4,0,1,1,4,4,4,4,4,5,4,3,4,3,5,5,3,3,3,2,4,2,3,4,4,5,4,3,3,3,2,2,2,4,3,4,3,4,3,3,2,2,2,2,4,2,3,2,3,3,2,2,2,1,2,2,2,3,3,4,2,4,3,8,8,8,10,4,4,4,2,2,4,5,5,3,2,2,4,3,1,3,2,2,2,10,2,1,4,4,3,10,8,0,"oplevelsesøkonomi",171.25,2,3,2,"Disgust",3400,1,1,2,2,2,3010,1,2,2,2,2,3000,1,3,2,2,3,3150,1,4,2,3,2,3140,1,5,2,3,2,2352.2,1,6,2,100,171.25,1,175,131.25,1,2.09762694520333,6.15884824157842,1.49187415801164,4.38045522359515,0.630260946681774,1.84800951929919,1.12754925015565,3.30999727504913,1.05052319337601,3.08349101459383,0.502736989524263,1.4754211483068,"9578b950f2efe73411c327f044aa7aa36aa745a511fb0cbe368ac47d52746707",21,80,27,59.375,22,66.6666666666667,25,64.2857142857143,9.77,18.99,8.92,75.4295532646048,61.4754098360655,62.109375,24
"Male",28,"medicin",0,1,0,0,0,"Active",3,3,0,1,0,2,3,4,3,4,1,2,2,4,3,4,3,2,2,4,4,4,2,3,3,5,5,4,3,4,5,3,2,3,4,2,2,4,2,2,2,3,2,2,1,4,1,4,2,1,1,3,2,2,1,2,2,2,4,3,2,4,3,2,4,7,9,4,2,2,3,1,2,3,4,4,4,1,2,2,1,1,3,99,99,99,99,1,1,4,3,3,10,8,0,"molekylær medicin",190,4,NA,5,"Disgust",3400,1,1,4,2,3,2352.2,1,2,4,1,4,3000,1,3,4,1,4,3010,1,4,4,2,3,3150,1,5,4,1,4,3140,1,6,2,100,190,2,200,150,1,0.827855341151541,8.70399669336516,0.954525861566013,10.0935664558731,0.230344265958008,2.38070423479167,0.177233727844708,1.88742149174605,0.0684437080445479,0.730505370719622,0.238343115871218,2.50347470884636,"a534b841fa6f9eafe9f60ee02ea7f20684e546874fa67df6013ac5c866778373",15,50,24,50,18,50,20,46.4285714285714,6.05,16.24,7.76,43.4707903780069,48.9526411657559,50.78125,20
"Male",22,"biologi",0,1,1,0,1,"Inactive",4,2,1,1,1,3,2,5,4,2,5,5,4,4,2,5,5,1,3,2,1,3,3,5,2,5,4,5,2,2,1,3,1,2,1,5,4,5,2,2,1,3,1,1,1,5,3,5,1,1,1,4,1,1,1,1,3,4,1,2,1,2,2,2,7,1,7,9,4,3,4,2,1,3,3,4,3,1,2,4,2,1,2,5,3,3,5,2,2,3,3,3,10,8,1,"agrobiologi",152.5,5,3,3,"Fear",1302,1,1,5,4,1,1110,1,2,5,3,1,5970,1,3,5,4,2,1930,1,4,5,4,1,1052,1,5,5,3,2,3280,1,6,1,100,152.5,3,150,112.5,1,3.27479586289548,9.00228245207921,0.328357656632107,0.894579044277754,1.07701686123393,2.94988293217921,0.64495489068126,1.76504156479399,0.694182036010558,1.89995184501906,2.07943647003175,5.7011999662172,"845cba951cf8995b6af9d78e3bfb61a8ae38b1fa556af439f83b3843a7af4769",21,80,19,34.375,22,66.6666666666667,26,67.8571428571429,10.33,13.56,10.8,80.2405498281787,36.7486338797814,80.46875,15
"Male",29,"økonomi",2,1,0,0,0,"Active",3,4,1,1,0,2,5,5,3,4,4,4,2,4,4,5,4,2,4,4,4,5,3,4,4,4,4,3,3,4,4,3,3,3,3,3,3,3,3,3,3,3,2,2,2,2,2,3,2,2,2,4,2,2,1,2,1,2,3,2,3,4,3,3,5,6,8,7,3,4,4,3,4,3,4,4,3,3,3,4,2,3,4,2,3,2,5,3,2,3,4,4,7,7,0,"økonomi",190,3,4,1,"Joy",2370,1,1,3,4,1,1463,1,2,3,3,1,2050,1,3,3,3,1,1670,1,4,3,4,1,2091,1,5,3,4,1,2341,1,6,1,100,190,2,200,150,1,0.340646751712319,16.5997984812167,0.079068943906606,3.93547923233407,0.0295315163634268,1.51491036150268,0.00896809324525077,0.350704346455096,0.00929201388072912,0.454139020780524,0.00675805495424278,0.381213917637302,"86102316357bf209929323847190e9c76643e1a07163bc6a5b7a1377d531cb81",23,90,27,59.375,24,75,26,67.8571428571429,10.51,19.13,10.24,81.786941580756,62.1129326047359,75,19
"Female",23,"kommunikation",0,2,0,0,0,"Active",3,0,1,1,0,2,2,4,3,2,2,3,4,2,2,5,3,2,2,3,3,4,4,3,3,4,4,4,3,2,3,3,2,2,2,4,4,4,3,2,2,3,2,2,2,4,4,4,2,2,2,3,2,2,1,3,4,4,3,3,3,4,3,3,7,5,6,7,3,2,4,2,3,3,4,3,3,3,2,3,2,2,4,4,3,3,6,1,1,2,1,3,9,6,0,"sprog og kommunikation",202.5,6,3,2,"Fear",5970,1,1,6,4,2,1052,1,2,6,3,2,3280,1,3,6,4,2,1302,1,4,6,3,3,1930,1,5,6,4,2,1110,1,6,2,50,202.5,3,150,112.5,1,2.03053276798705,5.78541154198111,0.174991420255095,0.490662238421801,0.24270998623128,0.713650024489424,0.0506301146552536,0.139692902962334,0.0282376829192251,0.104854048853906,1.03934735904588,2.92798702551864,"0b8d02378e7f4bfeb06e81c7949140eddbdd24d7ccbbaecab2441e5a4dc7fb2e",17,60,20,37.5,17,45.8333333333333,21,50,7.83,13.24,7.68,58.7628865979381,35.2914389799636,50,18
"Male",30,"musik",0,1,0,1,0,"Inactive",3,3,1,1,0,5,4,2,3,5,2,2,2,5,5,3,1,5,1,5,2,2,2,2,4,5,4,4,4,1,3,4,4,5,2,2,2,2,3,1,3,4,3,3,99,4,4,2,4,2,3,4,4,4,1,2,3,4,4,3,2,4,4,4,5,7,8,9,2,1,2,1,3,2,3,1,3,3,2,2,1,1,3,3,2,2,9,1,1,4,1,1,9,8,0,"musik",196.25,1,3,1,"Fear",1110,1,1,1,2,4,1302,1,2,1,2,2,5970,1,3,1,3,2,1052,1,4,1,3,1,3280,1,5,1,3,2,1930,1,6,1,75,196.25,1,175,131.25,1,1.54212827352128,9.68315861990511,1.00131973615531,6.24752838431262,0.569913062194057,3.57878166979406,0.19133038662575,1.17273674013724,0.592986361771986,3.7167410213931,0.450866772118654,2.80346228232677,"b8ef00a8875cabed810fdea2a567334b1152e56603916bf5bf4de3dde58912f4",10,25,36,87.5,14,33.3333333333333,16,32.1428571428571,3.56,24.5,4.46,22.0790378006873,86.5664845173042,18.5546875,20
"Male",22,"jura",0,1,0,0,0,"Active",2,6,1,1,1,5,4,2,5,4,2,5,1,5,5,4,5,5,3,5,4,4,5,4,5,5,5,5,3,1,2,1,1,1,2,4,4,5,2,1,2,1,1,1,1,5,5,5,3,1,1,1,1,1,1,1,4,4,1,4,3,4,1,1,6,1,4,10,1,1,4,1,1,4,4,4,3,1,3,3,3,5,4,2,5,2,8,1,1,4,4,3,7,8,0,"jura",158.75,4,4,1,"Joy",2091,1,1,4,3,1,1463,1,2,4,3,1,1670,1,3,4,3,1,2341,1,4,4,3,1,2370,1,5,4,3,1,2050,1,6,2,75,158.75,2,125,93.75,1,1.31455194338399,8.25422312165276,0.175874076780201,1.10358208492019,0.481269722528688,3.02115918740278,0.469718137354586,2.94959254359466,0.0748156709171549,0.473023566977637,0.69571771180641,4.36885867482005,"6abf6559c377dd164e8a96ec0b8e0aa228dbce55c39f11b1c07ffb6306866aa4",15,50,39,96.875,27,87.5,28,75,6.29,26.81,11.32,45.53264604811,97.0856102003643,85.546875,11
"Male",21,"jura",0,1,0,0,0,"Active",4,8,1,1,2,3,4,4,5,5,2,5,1,4,3,4,5,4,2,4,3,4,3,4,4,5,5,4,3,3,2,3,1,1,1,2,2,2,1,2,3,4,1,1,1,4,1,4,2,1,3,2,1,1,1,2,3,3,4,5,4,5,3,4,7,8,4,8,3,3,3,2,4,4,4,5,4,1,2,4,3,4,3,3,4,2,10,3,1,4,4,4,10,9,0,"jura",183.75,3,4,1,"Joy",2050,1,1,3,5,1,2370,1,2,3,5,1,2091,1,3,3,3,2,1670,1,4,3,4,2,2341,1,5,3,4,3,1463,1,6,1,50,183.75,2,125,93.75,1,2.34075047701985,4.62544181209452,1.25554773927999,2.49347908148291,0.173529083968294,0.345633082366532,3.2864103872673,6.5087443241625,0.188038023204139,0.363678720396361,1.33281069330094,2.66014716069301,"b3c8981e201968edef91f19da4a80bae1232c598339df1b2276f58d1274cd9e0",16,55,30,68.75,26,83.3333333333333,27,71.4285714285714,6.44,20.58,10.82,46.8213058419244,68.7158469945355,80.6640625,19
"Male",37,"terapi",4,1,1,1,1,"Inactive",5,2,1,1,1,2,4,5,5,1,5,4,2,3,2,5,4,2,5,2,4,5,5,4,3,3,3,2,4,1,3,3,3,3,2,3,2,3,3,1,4,3,3,2,1,2,2,2,4,1,4,3,3,3,2,2,2,2,3,3,3,2,3,3,4,4,3,7,4,4,4,3,2,4,4,4,3,2,3,3,3,3,3,4,4,3,10,2,2,3,4,2,10,10,0,"terapi/meditation/musik/kunst",152.5,6,4,2,"Joy",2050,1,1,6,4,2,2370,1,2,6,4,3,2341,1,3,6,5,2,2091,1,4,6,2,NA,1670,1,5,6,4,2,1463,1,6,2,100,152.5,3,150,112.5,1,1.15008429514197,5.66499243816083,1.50612524587018,7.39344908570835,0.757194044481286,3.72052445760689,0.677103564164131,3.3341540788631,0.64223345204615,3.14743808922177,0.699924525614307,3.42619780534121,"017c1f40d0982d8853598c83cf669a163e2690e034969373d0ebf94d66eb89b2",25,100,20,37.5,25,79.1666666666667,27,71.4285714285714,12.63,15.75,10.24,100,46.7213114754098,75,11
"Male",20,"statskundskab",0,1,1,1,1,"Inactive",5,8,2,1,2,3,4,3,2,3,3,2,3,3,3,5,4,3,3,2,4,2,4,4,2,2,1,2,1,3,3,4,1,1,1,1,1,1,2,1,1,3,1,1,1,1,1,1,1,1,1,3,1,1,1,4,3,4,5,5,4,5,4,3,7,8,7,5,4,3,4,3,1,5,5,4,5,1,4,4,4,5,2,99,99,99,5,3,2,4,4,3,2,7,0,"statskundskab",202.5,5,2,4,"Disgust",3140,1,1,5,1,5,3000,1,2,5,1,5,2352.2,1,3,5,2,4,3150,1,4,5,2,4,3010,1,5,5,2,3,3400,1,6,1,50,202.5,3,150,112.5,1,1.54769091890876,4.32291430753026,1.35387734319034,3.77474426162856,0.0986048770187647,0.267893180227365,0.162533971437109,0.442687574160504,0.288278438490088,0.789126373854509,0.383079947193329,1.05912036635563,"cba296aaac6a4b13fcf5acb212d4c5002b0b6ed1419838d217417df1729a8eb8",16,55,23,46.875,20,58.3333333333333,23,57.1428571428571,7.13,15.93,9.4,52.7491408934708,47.5409836065574,66.796875,22
"Male",22,"økonomi",0,1,0,0,0,"Active",3,8,1,1,2,2,3,4,4,2,2,4,3,3,2,4,5,2,3,4,4,3,4,5,3,5,5,3,4,3,4,3,2,3,2,3,3,2,4,3,4,3,2,2,1,2,2,2,4,3,4,4,2,2,1,3,2,2,4,3,4,4,3,1,6,7,7,7,4,3,4,2,2,3,3,3,4,3,3,2,2,4,4,2,4,2,6,2,2,3,3,4,7,6,0,"erhvervsøkonomi",196.25,2,5,2,"Joy",2050,1,1,2,4,2,1670,1,2,2,3,2,2370,1,3,2,4,1,2091,1,4,2,5,3,1463,1,5,2,3,1,2341,1,6,2,75,196.25,1,175,131.25,1,0.527009924996749,5.65937620689172,0.42017741668422,4.51703265612136,0.240414767769497,2.61873987800073,0.216112298301913,2.34915861117543,0.218942129739671,2.35606047389463,0.211648733248368,2.28430933191678,"0d0d7f4e4f167355860d887cdd6bc742cfc0bef9ef03af4ba33081bbe99d5c38",16,55,22,43.75,25,79.1666666666667,28,75,7.31,15.76,11.88,54.2955326460481,46.7668488160291,91.015625,20
"Female",26,"medicin",1,1,1,1,1,"Inactive",4,2,1,1,1,NA,NA,NA,NA,NA,NA,NA,NA,NA,NA,NA,NA,NA,NA,NA,NA,NA,NA,NA,NA,5,5,5,3,2,1,1,4,4,5,2,1,1,4,5,3,1,2,2,1,1,1,1,3,5,4,1,2,2,1,1,3,3,5,5,4,5,5,4,0,7,7,10,5,3,3,2,2,4,5,3,4,2,1,3,1,3,4,4,5,1,10,3,1,3,3,2,10,10,0,"medicin",171.25,1,1,1,"Disgust",3400,1,1,1,3,2,3140,1,2,1,1,3,3010,1,3,1,1,2,3150,1,4,1,1,3,3000,1,5,1,3,1,2352.2,1,6,1,100,171.25,1,175,131.25,1,2.21654921143022,7.56092695213406,1.13056925649528,3.85666399590945,1.14590503744052,3.90912161708731,1.453897858444,4.95997346584331,1.50008936257152,5.11731123724393,0.458631815453671,1.56413071330997,"7222e784643ab927b2792dbdceb8e1e8159e364dec787f6079bcd16830d6759e",NA,NA,NA,NA,NA,NA,NA,NA,NA,NA,NA,NA,NA,NA,14
"Female",20,"økonomi",0,1,0,0,0,"Active",3,5,1,1,2,1,3,5,4,2,4,3,2,1,1,5,5,1,2,3,2,5,1,3,4,3,2,3,2,1,3,3,3,2,1,3,2,3,3,1,2,3,3,2,1,3,3,2,1,1,2,3,3,3,1,2,5,4,2,5,3,3,4,3,10,9,9,10,1,1,1,1,3,4,4,2,2,2,2,2,1,2,3,2,2,2,8,1,2,4,4,3,8,8,0,"economics and business administration",190,3,5,1,"Joy",1463,1,1,3,5,1,2050,1,2,3,5,1,2370,1,3,3,5,1,2091,1,4,3,4,1,1670,1,5,3,5,1,2341,1,6,1,100,190,2,200,150,1,1.78341856499927,12.4336889206915,0.0626241421788548,0.436601262104366,0.133051565873929,0.92484747745181,0.129214823646277,0.903512068449673,0.140158209677626,0.974256898301465,0.135696951819562,0.947682839559543,"0dfb9ad266a4ef550be6427280b4b84baafa99d4485b587e6c88f378207cb085",21,80,14,18.75,20,58.3333333333333,22,53.5714285714286,10.25,10.69,8.5,79.553264604811,23.6794171220401,58.0078125,28
"Female",21,"økonomi",0,1,0,1,0,"Inactive",4,2,1,1,2,2,2,2,4,4,1,3,2,4,3,4,2,4,1,4,3,2,4,2,3,3,4,4,3,3,2,1,2,3,3,2,3,4,4,3,2,1,2,2,3,2,2,4,4,3,2,1,2,2,2,3,3,2,3,4,2,4,4,3,5,4,2,3,4,3,4,3,3,4,4,4,3,3,3,3,2,2,3,4,4,4,6,1,2,3,3,4,5,7,0,"økonomi",190,4,2,4,"Fear",1302,1,1,4,3,4,1930,1,2,4,2,3,1110,1,3,4,1,4,5970,1,4,4,1,4,1052,1,5,4,3,2,3280,1,6,2,100,190,2,200,150,1,1.08939052838247,13.8129961918523,0.223968751800111,2.82276803010989,0.0453780896365467,0.567310722422425,0.0863684867535468,1.07568926891512,0.0369501478981096,0.472254079432023,0.040475147039698,0.529622384267432,"6d3f511a004e6c4714a7daf609111d249c7ce6290e507f1dcd25bf962f3131c8",10,25,28,62.5,16,41.6666666666667,18,39.2857142857143,3.6,18.21,6.04,22.4226804123711,57.9234972677596,33.984375,11
"Male",20,"pædagog",0,1,0,0,0,"Active",3,3,2,2,2,3,4,4,NA,4,4,4,2,3,2,5,3,3,2,2,3,2,4,4,2,4,4,99,2,1,1,2,3,2,1,3,2,99,2,1,1,1,2,2,1,4,2,99,3,1,1,1,2,3,1,2,2,3,4,4,5,5,4,5,8,9,7,8,5,2,5,1,2,3,3,4,3,2,3,3,2,2,4,1,3,1,10,1,1,2,1,2,10,10,0,"pædagog",190,1,2,3,"Disgust",2352.2,1,1,1,2,3,3140,1,2,1,NA,4,3400,1,3,1,2,4,3000,1,4,1,2,3,3010,1,5,1,2,4,3150,1,6,1,100,190,1,200,150,1,0.929628053046626,5.11251506563592,0.150510391329355,0.762617004601438,0.494870969508066,2.65883484592821,0.157610795827301,0.805617439805743,0.297402589160386,1.70381103271507,0.422491983391494,2.26028073286083,"28559b27af098dc633d8f15e538a817054fa158aac382efad625885ef1a27e42",17,60,23,46.875,NA,NA,NA,NA,7.53,NA,9.08,56.1855670103093,NA,63.671875,24
"Male",73,"ingeniør",4,4,0,0,0,"Active",2,4,1,1,1,4,3,5,5,4,2,4,4,3,3,4,5,4,3,3,2,4,1,4,4,5,5,5,4,5,2,2,4,5,4,5,5,5,4,2,2,2,2,2,1,4,3,3,4,1,1,2,2,2,1,1,1,1,4,3,1,4,3,1,3,7,8,10,2,2,5,1,2,5,3,3,2,2,2,3,1,1,2,3,5,2,3,2,1,3,1,3,10,10,0,"ingeniør",190,2,1,5,"Fear",1052,1,1,2,2,3,3280,1,2,2,3,NA,5970,1,3,2,2,4,1302,1,4,2,3,5,1110,1,5,2,4,3,1930,1,6,2,100,190,1,200,150,1,1.99529690750015,11.1938735389852,0.415750751635088,2.33682264063884,0.557366113463419,3.11294696068829,0.548491376386697,3.0504356996275,0.659401614770677,3.67761510294554,0.347487008458483,1.92972235700492,"38047e92e0ad83d03a27181ac78a0855b7712952d528fbe73797611e58fe0865",18,65,26,56.25,23,70.8333333333333,27,71.4285714285714,7.67,18.34,9.9,57.3883161512028,58.5154826958105,71.6796875,18
"Female",22,"biologi",4,3,0,0,0,"Active",4,7,1,1,1,5,5,5,5,1,2,4,2,5,4,5,3,5,2,5,3,5,3,3,5,3,4,1,2,3,4,4,2,2,2,3,4,1,2,2,4,4,2,2,2,2,2,1,2,2,4,4,2,2,1,5,4,4,5,4,4,5,4,5,7,8,8,4,4,3,3,2,2,3,4,3,3,2,1,3,1,3,4,1,1,1,4,3,1,3,2,3,8,7,0,"bioanalytiker",190,3,3,1,"Neutral",1460,1,1,3,3,1,2221,1,2,3,2,1,9090,1,3,3,4,1,1440,1,4,3,4,1,1510,1,5,3,3,2,6930,1,6,1,100,190,2,200,150,1,2.54855491481189,11.7317496201666,1.55650419859057,7.16583117283639,0.511387993970634,2.35698349237029,1.17418917841609,5.40483473812514,0.130032851694281,0.596142488828205,0.629849325879541,2.90246926417675,"8b223d60aa2000c040c32808a1c5d2a51cdd856dd8ebc6b54bc76c93bd7b1e0e",19,70,33,78.125,23,70.8333333333333,25,64.2857142857143,9.15,25.93,8.1,70.1030927835052,93.0783242258652,54.1015625,23
"Female",21,"jura",1,1,0,0,0,"Active",2,4,2,2,2,4,4,5,4,2,2,3,3,4,3,5,2,2,2,3,4,5,3,3,5,3,4,2,3,4,5,3,3,2,1,3,3,2,2,2,5,3,3,2,1,5,4,3,5,2,5,3,4,3,1,4,3,4,4,5,5,5,4,3,7,6,NA,5,1,1,1,1,2,3,4,2,3,2,2,2,2,4,2,1,1,1,3,2,1,3,3,3,9,5,0,"jura",190,4,1,2,"Disgust",2352.2,1,1,4,3,2,3010,1,2,4,3,1,3400,1,3,4,1,2,3140,1,4,4,1,2,3000,1,5,4,1,2,3150,1,6,2,100,190,2,200,150,1,0.000757079299960916,1.42653180444904,0.000510217822651787,0.974714686199791,0.000592259577307081,1.1563846905068,0.000442416278832036,0.847520171461861,0.000528246132436079,0.958476521570546,0.000610155484988778,1.07308657857651,"19fd7cce36f882c8ad66c0149966e403e5109ec89681a5bea18d6d86a7b4f146",19,70,26,56.25,20,58.3333333333333,23,57.1428571428571,8.83,19.05,7.52,67.3539518900344,61.7486338797814,48.4375,NA
"Female",28,"pædagog",1,1,0,0,0,"Active",3,2,1,1,1,4,5,5,4,3,2,4,3,4,3,5,3,1,3,3,4,4,2,4,5,5,5,3,2,2,2,3,3,4,4,3,3,3,3,1,2,3,3,3,3,5,4,3,3,1,2,3,3,3,1,4,5,3,4,5,3,4,5,3,6,6,7,9,3,2,1,1,3,4,4,1,1,2,1,1,1,1,3,3,3,2,6,1,3,1,1,2,5,4,0,"pædagog",190,1,3,1,"Neutral",9090,1,1,1,4,1,1510,1,2,1,4,1,1460,1,3,1,3,1,2221,1,4,1,3,NA,6930,1,5,1,4,2,1440,1,6,1,100,190,1,200,150,1,0.298341105939506,4.02455647503722,0.122027281583833,1.64333115613675,0.0329151678376929,0.449642498358296,0.00901518742975999,0.12386881372317,0.0275808381319684,0.376686354625203,0.0174889264048038,0.235781356842058,"af9e28ff47cff4589432705d014101343938164d38df052cf3d03c0c5eee4db9",19,70,25,53.125,24,75,27,71.4285714285714,8.42,18.58,9.58,63.8316151202749,59.6083788706739,68.5546875,19
"Male",22,"sprogvidenskab",0,2,0,1,0,"Inactive",3,7,1,1,1,2,3,4,4,3,3,2,2,3,2,4,4,2,2,5,1,4,3,3,2,5,5,5,3,4,4,3,5,5,4,2,4,2,3,3,3,3,4,4,4,2,4,3,3,3,3,3,4,4,2,3,2,2,4,3,3,4,2,3,8,6,7,8,1,2,2,1,4,3,3,2,2,3,1,2,1,2,4,2,3,2,6,3,2,4,4,4,9,7,0,"sprog/humanoira",190,2,4,1,"Joy",2341,1,1,2,4,1,2370,1,2,2,4,1,2091,1,3,2,3,2,1670,1,4,2,5,1,1463,1,5,2,4,1,2050,1,6,2,100,190,1,200,150,1,1.61068489495431,9.40311485723013,0.313792650323491,1.87089738914134,0.370521960264841,2.10127853591116,0.126843577546166,0.698974031351378,0.632876200349481,3.61832219121184,0.0975403469108617,0.540961990074598,"91888b8c61d2918de84fd117e518845ba022198874f46ade121c3a58fc4d9495",17,60,22,43.75,17,45.8333333333333,19,42.8571428571429,7.79,15.65,6.92,58.4192439862543,46.2659380692168,42.578125,21
"Female",26,"kommunikation",1,1,0,0,0,"Active",3,3,1,1,1,2,4,5,4,3,3,4,4,2,2,5,5,2,3,5,5,4,2,5,4,5,5,5,5,3,4,4,4,3,4,3,3,2,5,1,2,4,3,2,1,4,4,3,2,1,3,3,3,2,1,1,3,1,3,4,3,4,3,3,7,8,7,8,3,2,2,2,1,3,3,2,3,1,1,2,1,2,2,2,3,2,9,1,2,3,3,4,8,6,0,"kommunikation",182.5,4,4,1,"Neutral",1510,1,1,4,3,2,9090,1,2,4,2,2,2221,1,3,4,3,1,6930,1,4,4,4,1,1440,1,5,4,3,2,1460,1,6,2,70,182.5,2,150,112.5,1,1.32609171056029,9.20445700150805,0.562029856671978,3.88591508789453,0.0978844245450064,0.711488424185882,0.108694718719131,0.7474056244198,0.0776052550783233,0.504483468344526,0.032916995666512,0.220071539438134,"58f43899307968b9558e7fe8ac0bc87f73bca15d7c71088002f88b331c5db669",20,75,22,43.75,27,87.5,31,85.7142857142857,9.13,16.04,12.38,69.9312714776632,48.0418943533697,95.8984375,22
"Female",23,"sprogvidenskab",0,1,0,0,0,"Active",2,3,1,1,0,2,4,4,3,4,5,4,4,2,3,5,5,3,4,3,5,4,4,5,5,4,4,2,2,3,3,3,4,3,3,3,2,2,4,2,3,3,4,2,2,2,2,2,3,2,4,4,2,2,1,3,4,4,4,4,5,5,5,4,5,7,9,9,2,2,1,1,4,1,4,1,2,3,1,2,1,1,2,2,2,1,7,1,1,3,1,2,10,8,0,"engelsk",190,2,5,1,"Neutral",1440,1,1,2,1,4,6930,1,2,2,3,2,2221,1,3,2,3,2,9090,1,4,2,4,1,1510,1,5,2,5,1,1460,1,6,2,100,190,1,200,150,1,1.10617972439502,4.9822996915665,0.262236375666082,1.17321912599185,0.300796939817313,1.36448046142825,0.152470224477192,0.672069542138948,0.0144615926392674,0.0596730062285178,0.0145218773692398,0.0575454899394935,"719ef5f0f110e3056647b646b6311a6976ce8d48da9fcf673a396aa0a68cfd30",22,85,26,56.25,26,83.3333333333333,30,82.1428571428571,10.22,16.97,12.38,79.2955326460481,52.2768670309654,95.8984375,21
"Male",27,"matematik",0,1,0,0,0,"Active",4,6,1,1,1,4,3,4,5,1,3,3,2,4,3,4,3,2,2,4,2,1,2,3,4,5,5,5,4,5,4,2,4,4,2,3,2,2,4,4,4,4,2,2,2,4,2,4,3,1,2,2,2,2,1,4,5,5,4,5,5,5,5,5,1,8,7,7,2,2,1,1,3,4,5,4,5,2,4,4,3,4,4,1,5,3,2,1,1,3,4,3,10,10,0,"matematik",172.5,3,3,1,"Neutral",2221,1,1,3,2,3,6930,1,2,3,4,3,1460,1,3,3,5,1,1510,1,4,3,3,1,9090,1,5,3,5,1,1440,1,6,1,80,172.5,2,150,112.5,1,0.686642603091843,7.95688678603916,0.219241487257481,2.5503799462981,0.105204753651733,1.24178821344949,0.0564005600779498,0.62724019755923,0.114932806955546,1.31900690201213,0.201231828935554,2.36899653743297,"cff01c5ebd244a8b468dc07208d735337291806b37c7625645e439e79c6b37d1",14,45,24,50,19,54.1666666666667,21,50,6.81,18.69,7.18,50,60.1092896174863,45.1171875,16
"Female",24,"økonomi",1,1,0,0,0,"Active",2,7,0,0,0,4,4,4,3,5,2,4,2,5,4,5,5,2,3,4,3,2,5,4,4,5,5,3,5,2,3,4,3,3,2,3,3,2,3,2,2,4,2,2,2,2,2,1,1,2,2,4,2,2,1,2,2,4,3,2,2,4,3,2,8,6,7,8,3,2,1,1,3,3,3,1,1,3,2,2,1,1,2,2,2,1,4,1,2,3,3,4,8,4,0,"erhvervsøkonomi",190,1,4,3,"Fear",1052,1,1,1,4,2,1110,1,2,1,1,4,5970,1,3,1,3,3,1302,1,4,1,3,3,3280,1,5,1,1,5,1930,1,6,1,100,190,1,200,150,1,2.69083760069217,12.2002276116184,0.439660762994447,2.04540836481583,0.828202790553502,3.75887705411763,0.642100300250482,2.97388092457867,0.476302047927305,2.08221234450269,0.278447127101347,1.28080361593109,"28d3f7ed029d9d0a22d7426dc21c09fca6eaceb14482ffa81eb07888abb8633d",16,55,33,78.125,23,70.8333333333333,25,64.2857142857143,6.24,21.22,10.4,45.1030927835052,71.6302367941712,76.5625,21
"Male",24,"kommunikation",0,1,0,0,0,"Active",2,7,1,1,1,4,5,4,5,4,2,4,2,4,3,5,4,3,2,2,2,5,1,3,3,5,5,5,2,2,2,2,2,3,2,4,4,3,2,1,1,2,1,1,1,3,3,2,4,1,1,2,1,2,1,2,3,1,2,2,1,4,4,3,4,2,6,8,2,2,4,1,1,1,4,2,4,2,1,2,1,3,3,4,4,3,99,2,1,2,2,1,9,5,0,"kommunikation",195,2,4,2,"Neutral",1510,1,1,2,3,4,9090,1,2,2,3,2,2221,1,3,2,5,1,1460,1,4,2,2,4,6930,1,5,2,5,2,1440,1,6,2,50,195,1,140,105,1,0.398427966748291,6.24641243171816,0.157912797255692,2.48409661796739,0.116377629985679,1.82026877909555,0.321533424597774,5.03384974294998,0.15931398351371,2.51024049943654,0.177912802516145,2.77717765036059,"07f924f1df6433c2754a0a8a971252fb47d2beea008a803c917403babe9d2cfd",18,65,24,50,23,70.8333333333333,25,64.2857142857143,7.73,18.51,8.26,57.9037800687285,59.2896174863388,55.6640625,12
"Male",23,"statskundskab",0,1,0,0,0,"Active",4,3,1,1,1,1,2,5,5,2,4,3,4,2,2,4,2,2,3,2,1,5,2,2,2,2,2,4,1,1,1,2,1,2,1,1,1,3,1,1,1,1,2,2,1,1,1,1,1,1,1,1,1,1,1,3,2,4,5,5,5,5,5,5,9,9,6,10,5,5,5,5,1,4,5,3,5,3,4,4,3,5,3,2,2,1,10,2,3,3,2,4,5,7,0,"offentlig politik og økonomi",190,4,3,3,"Fear",1302,1,1,4,2,4,1110,1,2,4,3,2,3280,1,3,4,2,4,1930,1,4,4,2,5,5970,1,5,4,2,5,1052,1,6,2,100,190,2,200,150,1,0.478092941534053,2.23479880403823,0.726321618115794,3.40866880959439,0.0667624246728607,0.284792197794534,0.0491653781794233,0.261350701322633,0.231053710619791,1.05916317817711,1.57453891845789,7.32188865731766,"6cb212791911ffeb86d85ca6b437587e0955ce021c7bd1be86bd97a6ae15b4f5",21,80,15,21.875,15,37.5,19,42.8571428571429,10.27,11.54,5.04,79.7250859106529,27.5500910746812,24.21875,24
"Female",22,"økonomi",0,1,0,1,0,"Inactive",4,7,1,1,1,3,4,4,4,3,3,2,1,3,2,3,5,3,2,3,4,4,2,4,5,4,3,2,2,3,4,3,1,1,2,3,2,3,2,2,5,3,1,1,1,2,2,2,1,2,3,4,1,1,1,3,2,3,4,3,3,5,3,4,7,8,8,8,5,5,4,4,1,4,4,3,4,1,4,4,2,4,3,3,4,2,8,4,2,4,2,3,7,6,0,"erhvervsøkonomi",137.5,6,4,1,"Neutral",2221,1,1,6,4,1,1510,1,2,6,5,1,1440,1,3,6,2,2,9090,1,4,6,1,3,6930,1,5,6,5,1,1460,1,6,2,100,137.5,3,130,97.5,1,0.199799384844502,4.2083895874446,0.108600945350412,2.23410189290346,0.203300323800821,4.28150073160149,0.0502473571679342,1.03413420389066,0.0636859281998471,1.36318931963644,0.101360359803274,2.13874455879453,"3519791373ea65df835f615fd18e1ab97e79fb5d6a735e0833152819a95f4dde",16,55,24,50,23,70.8333333333333,24,60.7142857142857,7.36,17.24,10.06,54.7250859106529,53.5063752276867,73.2421875,23
"Female",21,"økonomi",0,1,0,1,1,"Inactive",4,3,1,1,1,3,2,5,3,4,5,4,3,2,2,5,3,2,3,4,3,4,3,3,5,4,3,1,1,3,2,3,1,1,1,1,1,1,2,1,1,2,1,1,1,1,1,1,1,1,1,1,1,1,1,2,2,3,4,4,5,5,5,5,5,7,6,10,5,2,5,3,1,4,5,3,5,1,3,3,2,4,1,2,4,2,6,1,3,3,4,1,7,7,0,"økonomi",190,3,1,4,"Disgust",3000,1,1,3,1,4,3400,1,2,3,2,3,3010,1,3,3,2,1,2352.2,1,4,3,1,5,3140,1,5,3,2,4,3150,1,6,1,100,190,2,200,150,1,1.81878516714663,5.99742802917475,1.5273988244554,5.03441198394596,0.456672074877743,1.50097095306245,0.21036521816091,0.695738327291092,0.153719842385055,0.498809793275788,0.323268361301326,1.0658664129912,"9377a46a7a804212748891fd12f6301673e70658e166dff7e05c2835464ddb2f",22,85,25,53.125,18,50,21,50,10.23,15.09,8.1,79.3814432989691,43.7158469945355,54.1015625,18
"Male",48,"kommunikation",1,1,0,0,0,"Active",2,5,1,1,1,2,4,4,4,4,3,2,2,2,3,5,3,3,3,3,5,5,3,4,3,5,5,5,3,5,5,1,5,5,5,3,3,3,3,3,4,3,3,3,3,3,3,3,3,3,3,3,3,3,3,1,1,1,3,3,3,3,3,3,2,7,7,7,2,3,4,2,3,2,3,2,2,3,1,2,1,1,1,3,5,3,0,1,1,2,1,3,7,10,0,"kommunikation",207.5,5,2,NA,"Disgust",3150,1,1,5,3,3,3010,1,2,5,2,4,3000,1,3,5,4,1,2352.2,1,4,5,3,3,3140,1,5,5,2,4,3400,1,6,1,30,207.5,3,130,97.5,1,0.204191698500658,3.33012287932478,0.273094824345901,4.45165249969059,0.176620499446568,2.88102507030066,0.245862940888568,4.00800443928526,0.0508161651121382,0.824825957592585,0.245626132621181,4.00109834166047,"fce6402c466a8eb62676eb19d95f16698276f6784a4c3e855b3dc99c95f16e7b",20,75,23,46.875,22,66.6666666666667,24,60.7142857142857,8.89,16.1,9.24,67.8694158075601,48.3151183970856,65.234375,16
"Female",22,"økonomi",0,1,0,1,0,"Inactive",4,8,1,1,1,4,4,2,4,3,2,3,3,4,4,5,2,4,4,5,3,4,2,2,3,3,4,3,2,2,3,3,2,3,3,4,2,4,3,4,3,3,3,3,4,4,2,4,2,2,3,4,3,2,1,2,4,2,3,3,2,4,4,2,7,7,8,6,2,3,2,3,3,2,3,2,3,2,1,3,1,1,2,4,2,1,4,4,1,4,3,1,4,4,0,"erhvervsøkonomi",155,1,2,4,"Disgust",3140,1,1,1,1,5,3150,1,2,1,3,3,2352.2,1,3,1,1,4,3400,1,4,1,1,5,3000,1,5,1,1,5,3010,1,6,1,90,155,1,140,105,1,1.18926299039389,3.21168175063547,1.98404008635866,5.35607758001173,0.954095888782161,2.58752611687455,1.70260259327281,4.59209397221668,2.51745136899306,6.80427857463033,1.54306605495713,4.16681608323451,"de4cf7c44548032d3ee0fda8405d7f4710d4e79d8111160b50f6b6f53cd54904",17,60,29,65.625,18,50,21,50,7.49,21.49,6.04,55.8419243986254,72.8597449908925,33.984375,22
"Male",23,"økonomi",0,1,1,0,0,"Inactive",3,4,1,1,1,2,5,4,5,2,4,5,1,3,2,5,4,2,5,4,4,5,4,4,5,4,4,4,2,3,3,3,2,3,1,3,3,4,2,2,3,3,2,3,1,3,3,3,4,2,3,3,1,3,1,4,4,4,3,3,3,4,4,4,7,5,6,9,2,3,2,2,2,2,3,1,3,3,2,3,1,3,4,3,2,3,7,1,1,3,1,4,9,7,0,"erhvervsøkonomi",152.5,1,3,3,"Fear",1302,1,1,1,2,3,3280,1,2,1,3,2,1052,1,3,1,2,2,5970,1,4,1,1,3,1930,1,5,1,2,3,1110,1,6,1,100,152.5,1,150,112.5,1,0.947585220638177,6.81561412985603,0.236456069421045,1.70280162821421,0.557743928412314,4.00996879217826,0.530132526082026,3.81961916697089,0.8471535111709,6.10499348576948,0.213964652846816,1.54095114517693,"edc64a7750010ce475273f42194ec4ea4bbce64c6b047bd1e71ad6d2470eb254",23,90,24,50,27,87.5,28,75,11.14,18.33,10.66,87.1993127147766,58.4699453551912,79.1015625,18
"Male",19,"statskundskab",0,1,1,1,1,"Inactive",4,1,2,2,2,4,3,3,4,2,3,3,3,4,2,4,3,4,4,3,2,4,3,2,3,3,4,2,1,2,5,1,1,1,1,2,2,2,1,2,5,1,1,1,1,3,3,2,1,1,1,1,1,1,1,2,2,1,2,2,2,3,3,1,4,5,5,9,5,5,5,3,1,5,5,5,5,1,3,5,5,4,1,2,3,2,5,2,1,4,4,4,8,8,0,"statskundskab",202.5,2,4,1,"Neutral",1440,1,1,2,4,2,9090,1,2,2,3,2,6930,1,3,2,5,1,1460,1,4,2,2,3,2221,1,5,2,4,2,1510,1,6,2,50,202.5,1,150,112.5,1,0.486812626307395,3.46193263241002,0.339039383490641,2.40902577560996,0.462380911133857,3.28236088910363,0.449437139047058,3.19038143694351,0.261208570600831,1.85319268603121,0.0668404781056412,0.478327504298429,"92f85344ac5c744a7bb689ab76c01a6f4784156c5e31bee65b28c13daf6e5c05",18,65,25,53.125,17,45.8333333333333,20,46.4285714285714,8.55,18.21,6.2,64.9484536082474,57.9234972677596,35.546875,14
"Female",29,"medicin",1,2,1,1,1,"Inactive",4,2,1,2,2,2,3,4,5,4,1,3,3,4,4,4,3,1,1,4,4,2,4,5,3,5,5,4,4,2,3,2,5,3,4,4,4,4,4,1,3,3,5,3,2,4,4,4,4,1,3,3,5,4,2,1,2,2,2,2,2,4,4,2,4,5,5,7,5,3,4,3,3,3,3,4,3,4,3,2,3,2,5,2,3,2,8,2,3,3,3,4,10,7,0,"medicin",190,4,3,2,"Fear",5970,1,1,4,2,3,1110,1,2,4,2,3,3280,1,3,4,2,4,1052,1,4,4,1,5,1302,1,5,4,1,5,1930,1,6,2,100,190,2,200,150,1,1.34501236777322,15.7161893316054,0.245294442239289,2.87997032955194,0.0732023416245305,0.866073889430022,0.0311451049124146,0.38441656302197,0.236684010505773,2.74909912834687,0.0179609790314641,0.208332731681624,"448f65c2e1675b353ab072777a162b3a2894e9fb674b02f123e4d7e1cf53feb0",12,35,26,56.25,23,70.8333333333333,26,67.8571428571429,4.52,17.79,10.14,30.3264604810997,56.0109289617486,74.0234375,14
"Female",39,"lærer",1,1,0,0,0,"Active",2,2,1,1,1,3,3,5,4,2,5,4,2,3,3,5,4,3,5,4,4,5,4,4,3,5,5,3,3,2,3,4,4,4,4,4,4,3,3,1,4,4,3,3,1,4,3,2,3,1,3,4,3,3,1,1,2,3,1,3,3,2,4,3,4,4,6,8,1,3,2,2,3,1,2,1,2,3,1,1,1,1,4,3,3,4,6,2,1,2,2,2,2,5,0,"lærer",190,3,2,3,"Fear",1052,1,1,3,2,4,3280,1,2,3,3,2,5970,1,3,3,3,3,1930,1,4,3,3,2,1302,1,5,3,2,2,1110,1,6,1,100,190,2,200,150,1,0.523185429049733,3.43329969391159,0.721790134978272,4.73945737236008,0.285419899371383,1.8727124315006,0.442808898175856,2.90848772955048,0.394784197523937,2.5888135651362,0.429908183839704,2.81935634336736,"c9650320deb39313e3d4145d4e782c6eb76d0fbc2889777dd4ba22eb814cfc21",25,100,25,53.125,23,70.8333333333333,25,64.2857142857143,12.31,17.92,10.24,97.2508591065292,56.6029143897996,75,14
"Male",30,"historie",2,1,1,1,0,"Inactive",3,2,1,1,1,3,4,4,5,3,2,4,1,3,2,4,4,3,3,3,2,4,2,3,3,5,5,4,3,3,4,4,3,3,2,3,2,2,2,2,3,3,1,1,1,4,1,3,3,2,4,4,1,1,1,2,3,2,4,4,4,4,4,4,4,6,5,8,5,5,3,3,2,4,4,3,3,2,2,3,2,3,4,3,4,2,8,3,4,3,3,3,10,7,0,"historie",152.5,4,3,2,"Fear",3280,1,1,4,4,3,5970,1,2,4,2,4,1930,1,3,4,4,2,1110,1,4,4,2,3,1052,1,5,4,2,3,1302,1,6,2,100,152.5,2,150,112.5,1,3.22388756066462,6.04659358611005,1.28851724528817,2.42924157885802,1.02385079398687,1.89118390991259,0.168776547967897,0.349878169920198,0.375833163316913,0.684513602769528,0.16565324394161,0.306017625847438,"2ba7ee0b97984027f3086da4c50b36ed85d9ea5161b00fb0d69ae353c147b844",17,60,22,43.75,22,66.6666666666667,23,57.1428571428571,7.53,16.73,8.26,56.1855670103093,51.183970856102,55.6640625,15
"Female",23,"marketing",0,1,0,0,0,"Active",3,8,1,1,1,2,3,2,4,3,1,4,3,5,3,5,5,4,2,4,3,3,4,3,4,3,4,4,3,3,5,4,2,2,1,2,2,2,3,3,3,5,1,1,1,1,1,3,2,1,3,4,1,1,1,2,2,2,5,4,4,5,5,4,5,10,9,6,3,4,3,1,1,4,4,3,3,1,1,3,2,1,1,1,4,1,4,2,1,4,4,99,8,9,0,"marketing",203.75,2,3,2,"Joy",2341,1,1,2,5,1,2370,1,2,2,5,1,2091,1,3,2,3,1,1670,1,4,2,5,1,2050,1,5,2,5,2,1463,1,6,2,45,203.75,1,145,108.75,1,0.813051946064648,13.3584649472493,0.0463551482688603,0.760843355384633,0.00891466421004609,0.147497670856653,0.00817543990925035,0.134711482645737,0.0215186836327035,0.350598635466497,0.0303260846656049,0.504397960655989,"ed54d654f7f3883dbdae1e60fc9605281dcdf3f9ac5fb57d9ccb7dbaaa90fd7c",13,40,29,65.625,22,66.6666666666667,25,64.2857142857143,5.34,20.09,9.42,37.3711340206186,66.4845173041894,66.9921875,24
"Male",20,"økonomi",0,2,0,0,0,"Active",3,4,1,1,2,3,4,4,5,3,3,4,3,3,2,5,5,3,2,3,2,3,2,4,3,3,3,3,4,2,3,2,2,2,1,2,2,3,3,2,3,3,3,3,1,1,1,2,2,2,2,3,3,2,2,3,4,4,3,3,5,5,4,4,8,5,6,7,2,2,3,2,3,1,4,1,3,3,3,4,1,4,3,99,99,99,9,1,1,4,4,2,8,8,0,"økonomi",158.75,5,4,1,"Joy",1463,1,1,5,3,2,1670,1,2,5,3,2,2341,1,3,5,4,1,2091,1,4,5,4,1,2370,1,5,5,3,2,2050,1,6,1,0,158.75,3,25,18.75,1,2.77607927834742,11.286387332566,2.732469830521,11.1062917267389,0.360279671158193,1.46452046964051,0.722073436502278,2.92850465509463,0.784786407875807,3.19660156170929,0.300664992045315,1.21195426936871,"f1e9ca30aa84a4d6d546f7825667da4a00720b3109a77d5430fe94410b7501bb",17,60,22,43.75,24,75,27,71.4285714285714,7.68,16.73,9.9,57.4742268041237,51.183970856102,71.6796875,19
"Male",28,"statskundskab",1,1,0,0,0,"Active",3,6,1,1,1,4,4,3,5,2,2,2,2,4,4,3,3,4,2,3,3,3,3,3,4,3,2,2,2,2,2,3,2,2,1,2,2,2,4,2,2,3,2,2,1,3,3,2,2,2,2,3,2,2,1,2,4,2,3,4,3,5,4,3,8,8,7,8,3,4,2,3,2,4,4,2,4,2,4,4,2,4,2,2,2,1,10,2,1,4,3,4,7,3,0,"statskundskab",202.5,3,4,3,"Neutral",2221,1,1,3,3,4,1440,1,2,3,1,3,6930,1,3,3,2,4,9090,1,4,3,3,3,1460,1,5,3,2,1,1510,1,6,1,50,202.5,2,150,112.5,1,0.794958440986133,2.2739767968544,0.140532776832611,0.401763328972226,0.0993111410384498,0.285127027872436,0.434609869588241,1.24392636625771,0.24305507575594,0.687131390667217,0.0551390578834512,0.172791961491014,"c3d20f692d6810766c7fa729aa9f027cad09aabafe1629679abc004163fb4565",13,40,28,62.5,20,58.3333333333333,22,53.5714285714286,5.97,21.29,7.26,42.7835051546392,71.9489981785063,45.8984375,23
"Male",26,"kok",0,1,0,0,0,"Active",3,7,1,1,1,4,4,3,3,2,1,4,2,4,3,4,5,3,2,3,4,4,3,5,3,4,5,3,4,5,5,4,2,3,2,2,2,2,4,2,4,3,2,3,1,2,2,2,4,1,4,3,2,3,1,1,2,1,2,2,2,1,2,2,5,8,8,7,3,2,1,2,1,4,4,1,3,1,1,2,1,1,3,3,5,2,3,1,1,2,2,1,6,8,0,"kok",148.75,1,3,1,"Neutral",2221,1,1,1,3,1,6930,1,2,1,4,2,1460,1,3,1,4,2,1440,1,4,1,4,1,1510,1,5,1,3,2,9090,1,6,1,100,148.75,1,145,108.75,1,1.27212711723806,5.12939299971513,0.433718714167037,1.73621880915379,0.478423711720462,1.9272371961185,0.819958376591024,3.31466743507688,0.364267124434669,1.44013169555216,0.454516654209626,1.82731200586709,"8d4c8b8b9a5a1cd84afdc98998723344ca2dc2c0228cc8cfd986fd816285eaa1",14,45,25,53.125,25,79.1666666666667,27,71.4285714285714,6.23,18.51,11.88,45.0171821305842,59.2896174863388,91.015625,21
"Female",23,"internationale studier",1,1,1,1,1,"Inactive",5,7,1,1,0,4,2,4,3,3,5,1,2,3,1,5,2,2,4,1,3,5,2,2,1,3,3,1,3,5,5,3,1,1,1,2,1,3,4,5,5,3,1,1,1,2,3,2,5,5,3,2,2,2,1,4,3,2,5,3,2,4,2,2,9,7,6,8,2,2,1,1,2,4,3,3,4,1,4,5,3,5,1,3,2,3,7,2,1,4,4,3,10,10,0,"internationale relationer",133.75,6,2,4,"Fear",1052,1,1,6,3,3,5970,1,2,6,3,4,1302,1,3,6,1,4,1110,1,4,6,2,3,3280,1,5,6,1,5,1930,1,6,2,25,133.75,3,25,18.75,1,2.61842779455357,8.42562573268297,0.62290844598984,2.01505368571543,0.136897160034192,0.467376833757002,0.255157195833807,0.85460551996616,4.27463909624958,13.7632070556456,0.226367435869132,0.737004738384269,"242d9d111376c24441ad9e492f671a7f89be0a85726176fd3b1cd176806ecfc8",23,90,17,28.125,13,29.1666666666667,15,28.5714285714286,11.08,11.43,5.2,86.6838487972509,27.0491803278688,25.78125,22
"Female",26,"statskundskab",1,1,0,1,0,"Inactive",3,6,1,1,1,2,3,5,4,2,1,5,2,2,2,5,4,2,1,2,3,5,2,3,2,5,4,6,1,1,2,3,2,2,1,4,3,1,2,1,2,3,2,2,1,4,3,1,1,1,2,3,2,2,1,3,3,2,4,4,2,4,4,3,7,7,9,7,2,1,1,2,1,3,3,2,2,1,3,2,1,2,1,2,3,1,8,1,2,2,4,3,8,5,0,"statskundskab",177.5,4,3,4,"Fear",5970,1,1,4,1,5,1052,1,2,4,2,4,1930,1,3,4,1,4,1110,1,4,4,3,3,1302,1,5,4,3,2,3280,1,6,2,90,177.5,2,170,127.5,1,1.61312401183789,7.34010403253194,1.59196642501112,7.2238961027462,0.858524857133302,3.89838617244447,1.28120337079819,5.81309699711669,0.941762260264123,4.28461390452432,1.10522538175534,5.01395484623935,"da695e2f69af03b41329cf4ba21eaaf8a1b66189d862880c34453bbbabb28da9",17,60,16,25,22,66.6666666666667,24,60.7142857142857,7.67,12.4,9.18,57.3883161512028,31.4663023679417,64.6484375,23
"Male",22,"datamatik",0,1,0,0,0,"Active",1,3,1,1,2,1,2,1,5,5,2,4,1,5,1,4,1,1,3,4,2,5,1,2,5,5,1,4,1,1,5,5,2,5,1,5,1,4,1,1,4,2,3,5,1,5,5,4,4,1,5,5,4,4,1,2,3,1,4,2,1,5,4,1,7,5,6,10,1,1,1,1,5,1,2,1,3,4,3,1,1,4,3,2,3,1,10,1,1,4,4,1,7,8,0,"datamatik",190,2,3,3,"Disgust",2352.2,1,1,2,2,4,3150,1,2,2,3,4,3140,1,3,2,3,2,3010,1,4,2,2,3,3400,1,5,2,1,4,3000,1,6,2,100,190,1,200,150,1,1.7113575044021,6.00168616020142,1.19213203885526,4.16611084193321,0.393905693267262,1.34854694365642,0.941822896930654,3.26679647222544,1.16479059459972,4.06056827909369,0.703538090463168,2.40627130066967,"fe1bb38a098513943cdbff4c528b01a56eab611b8cf78c5fee70f421fd102131",15,50,23,46.875,16,41.6666666666667,17,35.7142857142857,6.05,14.75,5.3,43.4707903780069,42.167577413479,26.7578125,18
"Female",18,"sprogvidenskab",0,1,1,1,1,"Inactive",5,NA,2,2,2,5,4,2,5,2,1,4,5,4,4,4,4,3,1,4,2,3,3,3,4,4,3,5,1,1,3,1,4,4,2,3,2,5,1,4,3,1,1,3,1,2,1,5,1,4,3,1,2,3,1,1,2,2,2,3,2,4,4,2,0,3,2,10,5,4,4,3,1,5,4,5,4,2,4,4,5,5,4,3,4,2,3,1,1,4,4,3,10,9,0,"sproglig studieretning",190,1,2,3,"Disgust",3010,1,1,1,2,3,3140,1,2,1,1,4,3000,1,3,1,2,2,2352.2,1,4,1,2,4,3150,1,5,1,2,4,3400,1,6,1,100,190,1,200,150,1,2.24177115989694,7.47602879732396,2.25097066699784,7.51522577654741,2.10365744478305,7.02231076268338,0.299199531887538,0.965991530284575,0.48728377292113,1.62901541798762,1.07960374276539,3.57612421615496,"21995739872a48bc9d110eb270aaad71ae65b5c153d6a2d5016f288962e4a7ae",11,30,29,65.625,22,66.6666666666667,27,71.4285714285714,4.78,21.85,8.26,32.5601374570447,74.4990892531876,55.6640625,5
"Male",28,"statskundskab",2,2,1,1,0,"Inactive",3,4,1,1,0,3,5,2,4,4,2,5,2,2,5,5,4,3,2,5,5,2,4,2,5,4,4,5,1,5,5,2,1,2,3,4,3,5,2,1,4,3,1,1,3,5,4,2,4,1,5,2,1,1,2,2,1,2,3,4,3,4,3,3,6,7,8,9,1,2,3,2,2,4,5,4,5,1,4,3,4,4,3,4,3,2,2,1,2,4,4,4,8,7,0,"statskundskab",187.5,3,2,NA,"Joy",2370,1,1,3,4,2,2091,1,2,3,3,4,1670,1,3,3,5,2,2050,1,4,3,5,1,1463,1,5,3,4,2,2341,1,6,1,80,187.5,2,170,127.5,1,0.739437628820539,3.41971621208793,2.52946392774124,11.7473811672963,0.458996791186943,2.09999504449591,0.176381511460891,0.77596648958929,0.336460999262745,1.51281748509359,0.253928533981252,1.19379277903886,"33bf3958ce846b90b332284815b6c16e3a29e5786263cbce568233d9af78c6b5",13,40,31,71.875,25,79.1666666666667,27,71.4285714285714,5.19,21.61,9.2,36.0824742268041,73.4061930783242,64.84375,21
"Male",26,"filosofi",0,1,1,1,0,"Inactive",4,6,1,1,1,5,1,2,5,5,1,1,3,3,4,3,1,4,2,4,5,3,4,1,2,5,5,1,4,4,2,3,1,1,4,4,2,1,4,4,2,3,1,1,1,4,2,1,4,2,2,3,1,1,1,1,2,1,2,4,2,4,4,3,3,4,6,6,5,3,3,2,3,5,4,3,3,2,3,3,1,3,5,5,5,3,3,1,3,4,2,3,8,8,0,"filosofi",152.5,2,4,2,"Fear",3280,1,1,2,2,2,1302,1,2,2,3,1,1052,1,3,2,5,3,5970,1,4,2,3,1,1110,1,5,2,3,3,1930,1,6,2,100,152.5,1,150,112.5,1,2.36966794798359,11.4346007877704,1.26527123061565,6.11319172912548,0.422269911561076,2.03528424933857,0.955880067304316,4.61602411276179,0.070667462001897,0.333477941669389,0.270014674617844,1.28936270035486,"9639442e7910ee2dad829900952fc531eba32c45912b333150aa70f89fc66a7b",11,30,31,71.875,14,33.3333333333333,17,35.7142857142857,3.84,19.35,4.56,24.4845360824742,63.1147540983606,19.53125,13
"Female",21,"statskundskab",0,1,1,1,0,"Inactive",4,6,1,1,2,4,3,2,3,4,2,2,3,2,2,5,4,2,2,2,3,4,4,4,3,4,4,3,4,3,5,3,2,2,3,3,1,2,3,2,4,3,1,1,1,2,2,3,4,2,4,3,1,1,1,2,3,4,3,4,5,4,4,4,5,7,7,7,4,4,3,3,2,4,4,4,4,2,3,3,2,3,3,2,3,2,5,2,3,3,3,3,10,8,0,"statskundskab",145,6,4,1,"Joy",2370,1,1,6,5,1,2091,1,2,6,3,1,1670,1,3,6,5,1,2050,1,4,6,4,1,1463,1,5,6,5,1,2341,1,6,2,100,145,3,140,105,1,3.7178542137352,7.91395309011704,1.45163211466572,3.07989285070818,0.292343347753445,0.640687487924592,0.676301320687304,1.44312884094049,0.984660486919437,2.07153802422881,0.679489497812782,1.43768491166861,"12f231e2f19a492a89997356c7f06ab5bda83827edab43160710cd18ddd30f74",15,50,23,46.875,19,54.1666666666667,22,53.5714285714286,6.27,14.4,8.9,45.3608247422681,40.5737704918033,61.9140625,19
"Female",24,"biologi",2,1,0,0,0,"Active",4,3,0,2,1,2,3,4,4,2,3,5,2,3,4,5,2,3,2,2,3,4,2,2,1,3,2,1,3,1,1,2,1,2,1,2,1,3,1,1,2,1,2,2,1,1,1,1,1,1,4,4,1,1,1,2,3,2,3,4,4,5,5,4,6,7,9,9,4,3,5,2,1,1,3,1,2,2,2,2,1,2,3,3,2,1,7,3,1,2,4,3,9,6,0,"biologi",205,5,5,1,"Neutral",1440,1,1,5,4,3,1510,1,2,5,1,3,9090,1,3,5,2,3,6930,1,4,5,5,2,1460,1,5,5,3,4,2221,1,6,1,40,205,3,140,105,1,1.57493625346694,3.55685899457039,1.87542292418484,4.22885196587148,0.100431838013268,0.218770514554866,0.136014236375601,0.305743633091137,1.12891424325895,2.5548243133104,0.229414540805721,0.516706612620264,"a6ebe2bff6992b9ab7f58e42824e5994672723194e85ade30d367b4efc395c91",18,65,19,34.375,19,54.1666666666667,21,50,8.54,15.09,6.88,64.8625429553265,43.7158469945355,42.1875,22
"Male",25,"statskundskab",1,1,0,0,0,"Active",4,6,1,1,1,5,3,4,4,1,2,4,1,3,5,5,3,4,1,4,3,5,1,2,3,2,2,2,2,5,4,3,1,3,2,1,1,2,2,1,3,3,1,1,1,3,2,2,2,2,2,3,2,2,1,2,2,4,5,4,5,4,3,4,8,8,8,8,5,3,5,2,1,5,5,4,5,1,3,2,2,2,3,2,4,1,8,3,1,3,3,99,8,3,0,"statskundskab",202.5,1,1,4,"Disgust",3140,1,1,1,1,4,2352.2,1,2,1,1,4,3010,1,3,1,1,5,3400,1,4,1,1,5,3000,1,5,1,1,5,3150,1,6,1,50,202.5,1,150,112.5,1,3.03810340888975,8.35742205982601,0.0646004618388925,0.176624531060918,0.184086545584095,0.508351291565721,0.960801567289716,2.65370582560294,1.80096083883293,4.95242149561332,0.558813372945007,1.53679726145554,"140bde56e45154897d50b5d899f041a62478c3a2f49f12433c500e0f69cbc0dc",17,60,26,56.25,19,54.1666666666667,20,46.4285714285714,8.24,20.41,7.12,62.2852233676976,67.9417122040073,44.53125,24
"Female",25,"statskundskab",0,1,0,1,0,"Inactive",3,2,1,1,1,3,3,4,5,4,1,3,2,4,3,5,4,3,1,3,4,3,5,4,4,5,5,3,2,2,3,2,2,4,3,4,2,3,2,1,1,2,1,1,1,4,4,4,2,1,1,3,2,2,1,3,2,4,4,5,4,5,5,5,4,6,7,7,5,2,4,1,3,4,5,3,3,1,2,3,3,3,3,4,4,2,6,1,3,2,3,2,4,8,0,"statskundskab",145,3,5,1,"Joy",1463,1,1,3,5,1,2341,1,2,3,4,1,1670,1,3,3,3,3,2370,1,4,3,5,1,2091,1,5,3,4,3,2050,1,6,1,100,145,2,140,105,1,2.41855369146507,5.28626945575878,0.738640411800438,1.61154852852753,0.411803773305246,0.894841448145019,0.135769615130821,0.299616194364718,0.948652643448449,2.06575361146028,0.749993529246279,1.63196940303178,"237273b10e002198e5701afdffb4873807c1e6421000d95985a0a18b328d5df4",14,45,29,65.625,23,70.8333333333333,25,64.2857142857143,5.49,19.21,9.82,38.659793814433,62.4772313296903,70.8984375,17
"Male",22,"science",0,1,0,0,0,"Active",3,2,0,0,1,3,4,4,3,4,3,3,2,5,4,4,4,2,3,4,4,5,3,5,3,2,2,3,1,2,4,3,2,2,2,3,3,3,4,3,4,3,3,3,2,2,2,3,3,2,3,3,2,2,2,4,4,5,3,4,4,3,3,4,7,5,7,8,2,3,3,2,4,3,4,3,3,3,2,3,2,3,3,3,3,4,7,2,2,4,4,2,10,8,0,"nanoscience",205,4,5,1,"Joy",2370,1,1,4,5,1,2091,1,2,4,5,2,2050,1,3,4,4,2,2341,1,4,4,4,3,1670,1,5,4,4,2,1463,1,6,2,40,205,2,140,105,1,0.524591437455763,2.22149950741285,1.31442271933349,5.58591490509968,0.562004922221082,2.38858375408689,0.253465819999895,1.12250758940158,1.19063950183158,5.00017998229419,0.207487663676763,0.850427799539652,"0fb38e9ac85e6fb33ca4d7f59bd50bfdb7f692f6283efd17232f3fb8a13a0c74",19,70,28,62.5,23,70.8333333333333,25,64.2857142857143,8.46,19.44,10.8,64.1752577319588,63.5245901639344,80.46875,19
"Male",22,"science",0,1,0,0,0,"Active",3,2,0,1,0,4,4,4,5,3,2,3,3,4,3,5,4,4,3,4,4,4,3,4,2,5,4,3,3,2,3,3,3,4,2,4,3,3,2,1,4,3,3,3,2,4,4,2,3,1,4,3,2,3,2,2,2,2,3,3,3,3,3,3,7,3,NA,5,2,2,3,3,3,3,3,4,3,3,1,2,2,2,4,4,3,3,8,2,1,2,2,4,7,5,0,"nanoscience",197.5,2,2,4,"Disgust",3010,1,1,2,3,4,3400,1,2,2,3,4,2352.2,1,3,2,2,4,3000,1,4,2,3,3,3140,1,5,2,2,4,3150,1,6,2,70,197.5,1,170,127.5,1,1.16027079944264,6.80327344904814,0.660056675848733,3.87614957577346,0.367208978181017,2.14578079738454,0.133384368545321,0.776092059932731,0.35043366122262,2.04147896180016,0.198112384298738,1.16457994414604,"028e3a1f3c84ef2cb715222217111c072d58f2e979d211dc729a94414859c613",18,65,27,59.375,24,75,27,71.4285714285714,7.96,20.29,9.82,59.8797250859106,67.3952641165756,70.8984375,NA
"Female",22,"science",0,1,0,1,0,"Inactive",5,7,2,1,2,3,2,4,2,3,1,1,2,3,2,4,2,2,2,3,4,3,3,2,2,4,4,4,2,2,4,4,5,3,1,3,3,3,2,2,4,4,4,3,1,2,2,3,3,2,4,4,1,3,1,2,2,1,1,1,1,3,3,2,6,4,7,10,5,3,4,3,1,3,4,4,3,3,2,4,4,2,3,4,3,3,99,1,1,2,4,2,7,10,0,"science",122.5,3,2,4,"Fear",1302,1,1,3,1,4,5970,1,2,3,1,5,1930,1,3,3,3,5,3280,1,4,3,1,5,1052,1,5,3,2,4,1110,1,6,1,100,122.5,2,110,82.5,1,1.18965010836668,5.87730580824144,0.896420650373535,4.42972974165376,1.77454295074977,8.77709104066519,0.402176769827765,2.00020063155554,0.152148302447485,0.742296840065913,0.158274060930578,0.792071283998609,"7c0eee8a82e23feef9f6c98c71734a7f58578f6812953ad182bb9b45c39ca345",14,45,21,40.625,13,29.1666666666667,15,28.5714285714286,5.83,13.44,5.7,41.5807560137457,36.2021857923497,30.6640625,17
"Female",19,"sygepleje",0,1,1,1,0,"Inactive",3,4,2,2,2,3,3,1,4,4,5,5,5,3,3,5,5,2,1,3,2,5,3,4,3,4,4,4,2,2,2,3,3,3,3,3,2,3,2,2,2,3,3,3,1,3,2,2,1,1,3,3,2,2,1,1,3,2,3,4,3,4,4,3,5,4,7,8,1,3,2,1,2,1,4,2,2,3,1,2,1,1,4,3,4,2,8,1,1,3,3,3,7,7,0,"sygepleje",167.5,1,3,3,"Fear",1930,1,1,1,3,3,1052,1,2,1,2,3,5970,1,3,1,2,2,3280,1,4,1,3,2,1110,1,5,1,2,2,1302,1,6,1,100,167.5,1,170,127.5,1,2.64652647112279,8.8550361224048,1.28880043204292,4.31773176738856,0.406733869045185,1.35169121055255,1.66331005964767,5.56999395214055,0.732445193175887,2.4518809248608,0.569370388752603,1.90000330898513,"761f4be5a5e21591eb4070e0db645c5f976f0dfdd9bef28c7874c95c5bf3db3c",17,60,24,50,23,70.8333333333333,28,75,8.03,16.11,10.32,60.4810996563574,48.3606557377049,75.78125,16
"Female",22,"statskundskab",0,1,0,1,0,"Inactive",4,4,1,1,1,3,2,4,5,2,2,3,4,2,3,4,2,2,1,3,2,3,3,2,3,4,3,3,2,2,2,3,1,1,2,1,1,3,2,3,2,3,1,1,1,4,2,3,2,2,2,3,1,1,1,2,4,3,3,5,4,4,5,3,6,7,7,6,2,1,2,1,2,5,4,4,4,1,4,4,3,3,2,2,3,2,6,3,2,3,3,3,10,8,0,"statskundskab",212.5,4,5,1,"Joy",2341,1,1,4,5,1,1670,1,2,4,4,1,2050,1,3,4,5,1,2091,1,4,4,4,1,2370,1,5,4,5,1,1463,1,6,2,10,212.5,2,110,82.5,1,0.771378194561962,9.08294311550369,0.267509588454369,3.1513948304725,0.253332669478367,3.0025219137707,0.130376393919544,1.51666520886385,0.183001717248858,2.1550778370593,0.324837133817353,3.80317671619015,"b80902c3bfbed2b6bb419ee7879f324edae5c6b5872ad9b2cbc563c04955c3b8",14,45,21,40.625,16,41.6666666666667,20,46.4285714285714,6.41,15.07,5.54,46.5635738831615,43.6247723132969,29.1015625,20
"Female",30,"humaniore",1,1,0,0,0,"Active",3,2,1,1,1,4,4,2,4,5,4,4,4,5,5,4,3,5,2,4,4,4,3,4,4,3,4,3,4,1,2,3,2,3,1,3,4,2,4,2,2,3,2,3,1,4,4,3,2,2,2,3,2,2,2,4,4,3,2,2,2,5,4,3,8,6,7,8,3,2,4,3,2,3,3,2,3,3,3,3,3,3,3,3,2,2,9,2,4,4,4,2,7,7,0,"humaniore",165,2,3,2,"Neutral",2221,1,1,2,4,1,1510,1,2,2,3,3,6930,1,3,2,4,3,1440,1,4,2,3,2,9090,1,5,2,5,1,1460,1,6,2,50,165,1,100,75,1,1.16047857780036,7.11383694297664,0.0970839502925215,0.597643035690851,0.0989323810637434,0.614158134317745,0.494035952400126,3.01766236821038,0.0518370830255275,0.32527413414506,0.116767632299728,0.697535088074685,"1d0e6f79dc75b41f92e333fc0f38ac7b04c81228162cc1f7635ae30d1423d9ea",16,55,35,84.375,23,70.8333333333333,27,71.4285714285714,6.94,23.94,9.58,51.1168384879725,84.0163934426229,68.5546875,21
"Female",21,"kognitiv videnskab",0,1,0,1,0,"Inactive",4,3,1,1,2,3,2,3,2,1,3,4,4,2,3,2,3,2,4,4,2,5,1,4,1,2,2,4,1,4,2,1,1,1,1,1,1,4,1,2,2,1,1,1,1,2,2,3,1,2,2,1,1,1,1,5,5,4,5,4,2,5,4,4,9,4,7,10,2,2,1,1,1,3,5,3,4,1,3,3,3,3,1,3,2,2,10,2,3,3,4,3,10,10,0,"cognitive science",157.5,4,4,2,"Joy",1463,1,1,4,4,1,2341,1,2,4,5,1,2050,1,3,4,3,4,1670,1,4,4,3,2,2091,1,5,4,4,1,2370,1,6,2,50,157.5,2,90,67.5,1,0.443775665068821,2.87841453160293,0.306906018129865,1.98943588908342,0.7716404972711,4.92078769578952,0.106065349465901,0.665795582060572,0.253253202403202,1.60635968538972,0.188335593794198,1.18984904988709,"4d71418a312d0df243e184cdca454a22ff30215239575d947e2bee961d9bae4b",17,60,17,28.125,17,45.8333333333333,21,50,8.55,12.98,8.58,64.9484536082474,34.1074681238616,58.7890625,20
"Female",23,"statskundskab",1,1,0,0,0,"Active",4,7,1,1,1,2,2,3,3,2,3,3,4,2,2,4,4,2,3,2,4,4,3,3,2,5,5,2,4,3,5,3,2,4,4,1,1,3,2,2,5,3,1,1,2,1,1,2,1,1,4,3,1,1,1,2,2,3,2,2,3,2,2,4,6,7,7,5,3,3,3,3,1,3,5,4,4,1,1,2,1,2,4,2,4,2,7,3,1,4,4,3,7,9,0,"statskundskab",167.5,3,5,1,"Joy",2050,1,1,3,5,1,2091,1,2,3,5,1,2370,1,3,3,5,1,1670,1,4,3,5,1,2341,1,5,3,5,1,1463,1,6,1,40,167.5,2,90,67.5,1,0.494964209327905,5.00422033604337,0.253925802423417,2.57199870720436,0.428079247873604,4.26165584208069,0.338912626515436,3.43442355921589,0.23276251455238,2.33619353617738,0.19299738563936,1.89797493955906,"04b0690b05e641945b005af118340a4824b09cac9d391a5b2ee6e681b7913524",17,60,17,28.125,19,54.1666666666667,23,57.1428571428571,8.1,11.73,8.84,61.0824742268041,28.4153005464481,61.328125,20
"Male",25,"kommunikation",1,1,0,0,0,"Active",3,4,1,1,1,4,4,2,3,1,5,3,5,4,1,5,2,2,1,2,3,5,3,2,2,5,5,5,2,3,4,2,3,3,1,3,3,4,2,4,4,4,3,3,1,3,3,4,2,4,5,2,1,3,1,2,2,1,4,3,3,5,3,3,5,8,9,7,2,1,1,1,1,3,4,3,3,1,3,3,1,1,2,2,3,2,99,1,2,2,3,2,10,5,0,"kommunikation",165,1,3,4,"Fear",5970,1,1,1,4,2,1110,1,2,1,1,4,1052,1,3,1,1,3,1930,1,4,1,5,2,1302,1,5,1,5,1,3280,1,6,1,50,165,1,100,75,1,4.20893220296812,9.8207451512024,0.790701579405482,1.85469770875447,1.42481050689461,3.32107027169565,1.28863134952645,3.00721487023864,0.113332310324387,0.271622184035142,0.0306005316060667,0.0791732871262312,"41660534ac82ccda61d56caec274faba01c3c4439625fba8019eec5768616a6f",18,65,19,34.375,17,45.8333333333333,22,53.5714285714286,9.45,15.01,6.04,72.680412371134,43.351548269581,33.984375,22
"Male",22,"historie",0,1,1,1,1,"Inactive",4,4,1,1,1,3,4,5,5,3,4,2,3,4,3,5,5,3,4,4,3,4,4,4,2,4,3,2,2,2,4,3,3,4,2,2,2,2,2,2,4,2,3,3,1,3,4,2,2,1,4,3,2,3,1,3,2,4,3,2,3,3,3,3,6,7,7,6,4,3,4,3,1,5,4,3,5,2,4,3,2,3,3,2,2,3,7,1,1,4,3,3,10,7,0,"historie/digital design",195,3,4,2,"Joy",2341,1,1,3,4,1,2091,1,2,3,4,1,1463,1,3,3,4,2,2050,1,4,3,3,1,2370,1,5,3,4,1,1670,1,6,1,80,195,2,180,135,1,0.649528989122723,5.21441418383956,0.471797539587173,3.77893631629293,0.345408311451535,2.73897310385763,0.270339214376208,2.17790442879731,0.234821457448741,1.88616541892592,0.556353185807597,4.45103473423898,"4310ac8251107096c4acda8f5e8bf77c0319c8bd2017f1872e6014780e144d77",22,85,26,56.25,23,70.8333333333333,26,67.8571428571429,10.29,19.29,9.56,79.8969072164949,62.8415300546448,68.359375,20
"Male",21,"historie",0,1,0,0,1,"Inactive",3,2,1,1,2,3,5,4,4,5,1,2,5,5,5,5,5,5,2,5,2,4,5,3,1,4,4,5,2,1,1,1,3,2,2,4,3,5,1,1,1,2,2,2,1,5,4,5,1,1,1,2,3,4,2,1,4,2,2,3,2,3,2,2,6,4,7,7,4,2,4,1,1,4,4,4,3,1,2,1,2,1,3,4,4,3,9,1,1,4,4,2,10,10,0,"idehistorie",152.5,2,1,4,"Disgust",3000,1,1,2,1,5,3400,1,2,2,1,5,3150,1,3,2,2,4,3140,1,4,2,2,3,3010,1,5,2,3,4,2352.2,1,6,2,100,152.5,1,150,112.5,1,1.03467470788214,5.4862020756444,0.462572806776434,2.45773035449017,0.553725959369648,2.93856757719938,0.451110787057026,2.3939802358138,0.641215479589261,3.40207405007688,0.20100723776412,1.06452405896249,"da2348309e378b2225156b0dbe8cdc98af63971e4d0840a588b6b35efd4e4d6b",16,55,34,81.25,21,62.5,26,67.8571428571429,6.16,24.04,8.08,44.4158075601375,84.471766848816,53.90625,17
"Female",24,"statskundskab",1,1,0,0,0,"Active",4,0,1,1,1,2,5,4,3,4,2,4,2,4,4,4,5,4,2,4,4,4,3,5,4,5,4,4,2,2,1,2,2,2,3,3,2,3,2,1,1,2,2,2,1,3,2,3,2,1,2,2,1,1,1,1,2,3,1,3,3,4,4,4,7,7,10,10,4,4,3,3,2,3,4,3,5,2,2,4,2,3,2,2,3,1,9,1,2,4,4,3,10,10,0,"statskundskab",175,4,5,1,"Joy",2091,1,1,4,5,2,2341,1,2,4,4,1,2370,1,3,4,5,2,2050,1,4,4,4,3,1463,1,5,4,3,1,1670,1,6,2,100,175,2,180,135,1,1.94111531889062,10.2040747514704,0.206349307255553,1.04537700470882,0.751926140415617,3.97065565731168,0.13619780709574,0.677445637630421,0.476923991112285,2.46518780731903,0.136322756630934,0.677920405927357,"b3d7b18bcae0e902c0bed60a93ac6879e8020bb70f658f56b2118e8b41d764b8",16,55,29,65.625,26,83.3333333333333,28,75,6.76,20.63,11.88,49.5704467353952,68.943533697632,91.015625,24
"Female",23,"jura",1,2,1,0,0,"Inactive",3,7,0,1,2,4,4,4,4,2,3,4,4,3,4,4,4,3,2,2,4,4,2,4,4,4,3,3,4,4,5,3,3,2,2,1,1,1,4,2,5,4,2,1,1,2,2,1,4,2,5,4,2,1,1,1,3,3,4,4,4,4,4,4,7,9,7,8,4,4,4,2,3,5,5,4,3,2,3,4,3,2,3,2,4,2,9,2,3,3,3,2,9,8,0,"jura",202.5,1,3,2,"Neutral",1460,1,1,1,2,3,1510,1,2,1,4,3,6930,1,3,1,4,1,1440,1,4,1,3,2,2221,1,5,1,2,2,9090,1,6,1,50,202.5,1,150,112.5,1,1.19455672957655,5.10599730541266,0.653237879945799,2.79111855725973,0.82820063265233,3.5319917424474,0.555538608255764,2.36801124885027,0.636422152480508,2.71723160525987,0.450706795779612,1.91698754869779,"b2342493e995b6ec279d23ed24b92a7a79b9373b42df2be1416647f286dc821b",17,60,24,50,24,75,28,75,8.11,18.3,10.24,61.1683848797251,58.3333333333333,75,23
"Male",22,"humaniore",0,1,0,1,1,"Inactive",4,9,1,1,1,4,5,5,4,2,4,3,2,5,4,5,5,4,4,5,4,4,4,4,4,3,4,3,3,2,5,2,4,4,1,3,4,3,3,2,5,2,2,2,1,3,4,3,3,2,2,2,1,2,1,2,3,2,4,4,3,4,5,4,3,4,4,7,3,4,4,3,2,4,4,4,3,2,1,2,1,2,5,3,4,3,6,1,2,4,4,4,7,3,0,"humaniore",127.5,4,2,3,"Neutral",6930,1,1,4,4,1,1440,1,2,4,3,2,2221,1,3,4,2,2,9090,1,4,4,5,1,1460,1,5,4,2,1,1510,1,6,2,50,127.5,2,50,37.5,1,1.7283567372012,4.94374752748335,1.75002227724459,5.01638890638295,1.42660898203489,4.09761576600694,1.62320481708398,4.6494589992213,0.928688283156145,2.66533396763656,0.762931676995961,2.17985687755491,"8a25119977a15d410d82286aa5db2b316b6fd9fe1c081cca83b82b1897c363fd",22,85,32,75,25,79.1666666666667,27,71.4285714285714,10.61,24.09,10.48,82.6460481099656,84.6994535519126,77.34375,11
"Male",26,"biologi",1,1,1,0,0,"Inactive",2,2,1,1,1,5,3,5,4,4,2,3,2,4,3,2,3,3,1,4,2,5,3,3,4,5,5,2,3,1,4,2,4,2,3,4,3,4,3,2,4,3,4,2,2,4,3,4,3,2,3,3,4,2,2,2,3,4,3,3,4,3,3,3,7,6,7,8,1,2,4,1,3,1,2,2,1,3,1,3,2,2,3,3,2,2,8,1,1,2,1,2,10,5,0,"biologi",190,2,2,2,"Disgust",3150,1,1,2,3,1,2352.2,1,2,2,3,2,3000,1,3,2,1,3,3400,1,4,2,2,2,3140,1,5,2,3,1,3010,1,6,2,100,190,1,200,150,1,3.22917477595236,10.5446994590367,0.853953432188188,2.79464799218803,0.274346835219003,0.890396426146473,0.790371943885234,2.59806297722457,1.00385509904546,3.27024458027708,0.199097262095753,0.673641485168152,"15a6226126b7265b215bbd6fe5ba13427c201e91f6302731badf4cfd13176c71",15,50,30,68.75,18,50,20,46.4285714285714,6.45,20.02,7.18,46.9072164948454,66.1657559198542,45.1171875,20
"Male",23,"økonomi",1,1,0,1,1,"Inactive",4,8,0,1,1,4,4,2,3,4,1,3,3,4,4,3,3,4,1,4,2,2,3,2,4,5,4,4,2,4,4,1,1,2,1,2,2,3,2,1,4,2,1,2,1,4,3,2,1,1,3,2,1,2,1,3,2,3,4,2,2,5,3,3,3,6,7,4,4,3,3,4,2,4,4,4,5,2,2,2,4,2,4,2,3,2,5,2,2,2,4,3,6,7,0,"erhvervsøkonomi",177.5,3,2,4,"Fear",1302,1,1,3,3,4,1110,1,2,3,2,5,1930,1,3,3,3,2,3280,1,4,3,3,3,1052,1,5,3,2,3,5970,1,6,1,0,177.5,2,50,37.5,1,1.94614954750558,5.6496378861321,1.73349153509571,5.03548612674609,0.89906383755139,2.59017179611041,0.650301790030703,1.88303824789313,0.461165782805939,1.32840563780202,0.192991607818159,0.551788375464743,"65b2867b082334c1c42ca05f193c2200fad52d292cd08a00f699fcdcbfd28c67",9,20,31,71.875,17,45.8333333333333,20,46.4285714285714,3.17,21.21,6.2,18.7285223367698,71.5846994535519,35.546875,16
"Male",22,"samfundsfag",0,1,1,1,0,"Inactive",4,4,1,1,1,3,3,4,3,2,3,4,2,4,4,5,4,3,3,4,4,4,4,4,4,3,2,2,3,3,4,3,1,1,2,2,2,3,3,3,4,3,1,1,1,2,3,2,1,1,3,3,1,2,1,2,3,3,3,4,4,3,4,2,7,7,7,7,5,4,4,4,2,4,5,4,4,1,4,4,4,5,2,2,3,2,8,3,3,4,4,3,10,7,0,"samfundsfaglig",190,1,4,1,"Joy",2341,1,1,1,3,2,1463,1,2,1,4,1,2091,1,3,1,3,1,1670,1,4,1,5,2,2050,1,5,1,4,1,2370,1,6,1,100,190,1,200,150,1,0.964207185816643,5.4027434930991,0.72348881506397,4.05339493697722,0.0921334271769867,0.519337999795806,0.0898793850427445,0.501220194884544,0.643698935006506,3.60439634012619,0.440614613829013,2.46676128038472,"df7796084d1bf38307e07d9a9bc0fe17e9bfcd364593a702afc772c8c2852353",19,70,28,62.5,22,66.6666666666667,24,60.7142857142857,8.99,19.57,10.24,68.7285223367698,64.1165755919854,75,21
"Male",24,"religion",0,1,1,0,0,"Inactive",2,0,1,1,1,2,2,4,3,4,3,3,4,2,2,4,3,2,3,3,1,3,3,3,2,5,4,4,3,2,4,2,3,3,1,5,4,4,3,1,4,2,3,3,1,4,4,4,3,2,4,2,3,3,1,1,1,2,2,2,3,3,3,3,1,6,8,9,4,4,3,2,2,4,4,3,2,3,4,4,3,3,4,3,4,2,8,1,3,3,4,2,9,9,0,"religionsvidenskab",171.25,4,4,1,"Joy",1463,1,1,4,3,1,1670,1,2,4,4,2,2050,1,3,4,5,2,2370,1,4,4,4,2,2341,1,5,4,4,1,2091,1,6,2,100,171.25,2,175,131.25,1,2.86078324863348,14.5655742979596,0.635243888244701,3.23451991232018,0.69880301021262,3.55954832990249,0.350532067514581,1.78405681608581,0.484205817075119,2.46678550483047,1.27643270752861,6.49768024315075,"2d9e57433a153dd650243bb8f41a6875802b23aaebfdb1a7498999872eb3e189",17,60,20,37.5,15,37.5,19,42.8571428571429,7.38,12.43,6.68,54.8969072164949,31.6029143897996,40.234375,15
"Male",23,"science",0,1,0,0,0,"Active",1,2,0,1,1,2,4,4,5,4,2,5,3,3,1,5,3,3,2,4,4,4,1,4,2,5,5,5,99,4,4,3,5,5,4,5,5,5,3,3,4,3,4,4,2,4,4,5,3,2,3,2,4,4,1,2,2,2,3,3,4,4,3,2,4,3,4,6,1,2,1,1,4,1,2,1,1,3,1,1,1,1,4,4,4,3,7,1,1,4,3,4,10,5,0,"nanoscience",122.5,2,3,1,"Neutral",2221,1,1,2,4,1,1440,1,2,2,2,3,6930,1,3,2,1,NA,9090,1,4,2,3,1,1460,1,5,2,3,1,1510,1,6,2,100,122.5,1,110,82.5,1,3.60485456341989,18.5779552214812,1.94208655406074,10.0046217409571,0.972057373873742,5.00487712840325,0.213357689692749,1.10366736837554,0.688900058874794,3.55198723977786,0.0562859940984915,0.292160198504811,"021c2a73650cd39b7ba499f8bb9e4d87b64d03d5c4e9ee6c93ae90413b22d62b",17,60,20,37.5,25,79.1666666666667,28,75,7.19,15.21,10,53.2646048109966,44.2622950819672,72.65625,11
"Female",46,"humaniore",2,1,0,0,0,"Active",3,2,1,1,1,3,1,4,2,4,3,3,3,3,2,5,3,1,2,2,3,5,4,3,3,4,4,4,5,5,3,3,4,4,2,4,4,4,5,1,3,2,5,5,1,2,3,3,5,1,3,3,4,4,1,4,4,3,4,4,3,5,3,3,5,6,6,7,4,3,3,1,1,1,1,1,1,1,1,1,1,1,1,3,3,4,3,3,1,4,4,1,9,9,0,"humaniore",212.5,1,1,4,"Disgust",3000,1,1,1,1,5,3400,1,2,1,1,3,3140,1,3,1,3,3,2352.2,1,4,1,1,4,3150,1,5,1,1,4,3010,1,6,1,10,212.5,1,110,82.5,1,1.49414568259577,9.68526049490002,0.0472188889518594,0.31202008353095,0.00897538684762403,0.0469358803777294,0.00484294841640105,0.0201688339748531,0.0197680183317377,0.122714278118399,0.496699723827211,3.21461996674285,"19b315df8b36ef2d10f04c2665764e1ce9325fe6ada776f1bd4096a4d97a515b",19,70,22,43.75,15,37.5,18,39.2857142857143,8.44,12.16,7.68,64.0034364261168,30.3734061930783,50,17
"Female",53,"lærer",1,1,1,1,1,"Inactive",4,3,1,1,1,3,3,4,4,5,4,5,5,3,4,4,4,2,3,4,4,4,3,3,3,4,3,4,1,2,2,1,3,3,2,4,3,4,3,1,2,1,3,3,1,3,1,4,1,2,2,1,2,2,1,3,2,1,3,5,1,4,5,2,3,7,8,8,2,3,2,3,2,4,4,3,3,1,2,3,3,2,2,3,4,2,10,3,3,3,3,3,10,10,0,"lærer",196.25,3,3,4,"Fear",1302,1,1,3,4,3,1052,1,2,3,2,4,1930,1,3,3,2,3,5970,1,4,3,4,1,1110,1,5,3,2,3,3280,1,6,1,75,196.25,2,175,131.25,1,0.730782603563632,3.15031619403384,0.137921741577192,0.574541117008418,0.408148585455864,1.74006648647706,0.19495302012049,0.821492553700256,0.788045574409583,3.43167319369614,0.256313929392889,1.10104964118304,"1fc46e5cc3ef6b1c051a6f0d49c48034852a14726305a1ee307f9d3822b2ec50",19,70,27,59.375,23,70.8333333333333,28,75,8.31,17.61,9.68,62.8865979381443,55.1912568306011,69.53125,18
"Male",26,"lærer",1,1,0,0,0,"Active",5,0,1,1,1,5,2,4,2,2,4,2,5,1,1,5,1,4,2,2,4,5,5,2,2,4,2,5,2,1,5,2,1,1,1,5,2,5,3,1,5,2,1,1,1,3,2,4,2,1,5,2,1,1,1,4,3,3,3,1,1,4,3,3,5,3,5,3,5,4,4,5,1,5,5,4,5,1,99,5,5,4,1,99,99,99,99,99,99,99,99,4,10,10,0,"lærer",190,1,2,3,"Neutral",6930,1,1,1,3,3,9090,1,2,1,4,1,1460,1,3,1,4,1,1510,1,4,1,4,1,1440,1,5,1,3,1,2221,1,6,1,100,190,1,200,150,1,5.6743359535466,7.53036219087218,1.52827735628624,2.03321424610029,0.928864364757195,1.23091079740124,0.0494455493960112,0.0667016329551968,1.60965917989852,2.13005280336109,1.7518813927423,2.32347094384398,"ca00093e53ddd827b75c1d9d9294635ad557703413f8f5b4eda0beb0ad181881",20,75,22,43.75,13,29.1666666666667,18,39.2857142857143,9.79,13.8,5.46,75.6013745704467,37.8415300546448,28.3203125,13
"Female",24,"økonomi",0,1,0,0,0,"Active",4,5,1,2,2,1,2,2,3,4,5,4,5,1,1,2,4,1,4,1,4,5,2,4,1,99,99,99,99,99,99,99,99,99,99,99,99,99,99,99,99,99,99,99,99,99,99,99,99,99,99,99,99,3,1,5,5,4,3,4,4,5,5,4,7,7,8,7,4,4,3,2,2,3,5,2,3,2,5,5,4,5,2,2,3,1,5,3,2,4,4,99,10,10,1,"erhvervsøkonomi",190,4,2,2,"Fear",1930,1,1,4,3,2,1302,1,2,4,3,3,5970,1,3,4,NA,3,1110,1,4,4,4,1,3280,1,5,4,2,4,1052,1,6,2,100,190,2,200,150,1,1.71215633274708,6.31106754180787,0.135402174247162,0.496737805928692,0.329543610136643,1.21348787741435,0.728197965485643,2.68284699274085,0.618014408057223,2.27420268240864,0.741786906431839,2.732925530459,"4a220556becc46e910d88032ce85a32f2e8e9c46519e7220a5e769afc06476bb",18,65,12,12.5,21,62.5,26,67.8571428571429,8.55,7.27,10.24,64.9484536082474,8.10564663023679,75,22
"Female",34,"psykologi",2,1,0,0,0,"Active",2,3,1,1,1,1,4,4,4,2,3,3,3,1,1,5,4,1,5,2,5,5,1,5,1,5,5,3,3,1,1,2,2,2,5,5,4,3,2,1,1,1,2,2,5,3,3,1,1,1,1,3,2,2,1,1,1,1,2,1,1,5,5,5,1,1,5,8,1,1,1,1,2,1,2,1,1,1,1,1,1,1,2,1,1,1,4,1,1,1,1,4,6,5,0,"psykologi",190,3,4,3,"Neutral",6930,1,1,3,3,2,9090,1,2,3,3,3,2221,1,3,3,4,2,1460,1,4,3,3,2,1440,1,5,3,3,2,1510,1,6,1,100,190,2,200,150,1,1.23199160395532,3.56554779253135,0.472001503685408,1.34750031265952,1.74977265115126,5.0464188946947,0.0980085088807315,0.285232486501909,0.0978074557619406,0.288455538347851,0.0915198425039656,0.255413879267055,"484ac4b5db5c245b81953f8a9f69c163adfeacc9049ba64219db6460795985e3",22,85,10,6.25,25,79.1666666666667,28,75,10.43,9.28,11.3,81.0996563573883,17.2586520947177,85.3515625,7
"Female",21,"økonomi",0,1,1,0,0,"Inactive",4,8,1,1,2,3,4,4,4,1,1,4,2,4,5,4,5,5,3,4,4,3,4,4,3,1,1,3,2,4,3,3,1,1,1,2,1,2,3,4,4,4,1,1,1,1,1,1,2,4,3,4,1,1,1,3,3,2,4,4,2,5,5,3,8,6,8,7,4,4,3,4,1,4,4,2,4,1,4,4,3,3,1,2,2,1,4,2,1,4,4,4,4,8,0,"ha jur",190,2,5,1,"Neutral",1440,1,1,2,3,1,1510,1,2,2,4,1,1460,1,3,2,3,1,2221,1,4,2,2,3,6930,1,5,2,3,1,9090,1,6,2,100,190,1,200,150,1,0.987498356494885,4.35317687175991,1.06403192812919,4.69465129625786,0.688551193752187,3.04177086753,1.20913700999792,5.32319495431522,1.05236044107119,4.63014828013333,0.25631352266398,1.11719081870109,"135b7ffcb56aa83c0d6cdaeb66999498512f46d2f15dff2fb559c5c6e5b8faf8",15,50,29,65.625,25,79.1666666666667,27,71.4285714285714,6.92,22.45,10.9,50.9450171821306,77.2313296903461,81.4453125,22
"Female",22,"kommunikation",0,1,0,0,1,"Inactive",3,7,1,1,1,2,5,4,5,4,3,4,5,4,2,5,3,3,1,4,5,2,4,5,2,5,5,4,1,2,2,2,1,1,4,4,4,5,2,1,2,2,1,1,2,2,3,2,1,2,2,2,1,1,1,3,2,4,5,5,3,5,5,4,8,3,6,3,4,3,4,3,2,3,4,4,4,2,2,3,2,1,3,2,3,2,10,1,1,2,3,4,10,8,0,"erhvervskommunikation",190,6,3,3,"Neutral",6930,1,1,6,5,3,1510,1,2,6,5,4,1460,1,3,6,3,2,9090,1,4,6,NA,2,2221,1,5,6,4,2,1440,1,6,2,100,190,3,200,150,1,0.765929387782784,8.36112355309414,0.209049527385833,2.27997217532292,0.077465827089065,0.824179390909898,0.0787949594727821,0.802916476263516,0.641523784822307,6.94656395616069,0.144176456711872,1.51279819426386,"4b24a204529eee224933f376b0f387a4b876d045fbc80ff86de4400ef23d61c0",15,50,25,53.125,27,87.5,32,89.2857142857143,6.37,18.52,11.06,46.2199312714777,59.3351548269581,83.0078125,17
"Male",47,"pædagog",1,1,0,0,0,"Active",4,7,1,1,1,3,3,2,4,3,2,3,2,2,1,5,2,2,2,2,2,4,2,2,2,2,2,2,3,4,3,4,1,1,1,1,1,1,2,3,4,4,2,2,1,2,2,1,3,4,3,4,1,2,1,1,1,2,4,3,4,4,4,4,3,8,8,6,5,4,3,2,3,2,3,2,4,2,2,4,3,3,3,2,4,2,1,2,2,4,1,4,8,10,0,"pædagog",190,5,4,3,"Joy",2050,1,1,5,5,4,1463,1,2,5,2,4,2341,1,3,5,3,3,1670,1,4,5,5,2,2091,1,5,5,4,2,2370,1,6,1,100,190,3,200,150,1,0.618950613818351,4.34901332683568,0.492497267868319,3.46278677328409,0.322684089347816,2.26786419317449,0.262285769603504,1.81202395985586,0.420085086930802,2.97661784508546,0.0197922422436975,0.124656079770522,"1857f397cccade31cfa9e15fbcebf9bfe1401761608bb5691d86257152c80d36",15,50,17,28.125,16,41.6666666666667,18,39.2857142857143,6.59,12.21,5.54,48.1099656357388,30.6010928961749,29.1015625,19
"Male",27,"kommunikation",1,1,0,0,0,"Active",3,3,1,1,1,2,4,4,5,3,4,4,3,3,2,4,3,2,3,4,3,4,3,3,4,5,4,4,3,2,4,3,2,2,2,5,3,4,3,2,4,4,1,1,1,4,2,3,3,1,4,4,1,1,1,3,4,3,4,4,4,4,4,4,7,8,9,10,3,3,4,4,2,4,4,3,3,2,3,3,3,4,3,99,99,99,8,1,1,3,2,3,9,6,0,"international kommunikation og engelsk",190,3,3,3,"Fear",1302,1,1,3,4,3,1110,1,2,3,3,4,1930,1,3,3,3,4,5970,1,4,3,4,3,1052,1,5,3,3,2,3280,1,6,1,100,190,2,200,150,1,3.55061485371236,10.5297732762206,1.91950522921675,5.69936456248101,0.104612730393458,0.32653383483575,0.626874033447304,1.88149953874923,0.116911565569391,0.353955313755622,0.0611427680774102,0.188166176867535,"9a6411951b1a9ec9dab13b927f3ec645b40a1eae6b1f711f32eadc1c7941d07a",19,70,23,46.875,22,66.6666666666667,25,64.2857142857143,8.95,16.88,8.1,68.3848797250859,51.8670309653916,54.1015625,24
"Male",22,"økonomi",0,1,0,1,0,"Inactive",3,7,1,1,1,5,5,4,3,5,3,4,3,5,5,5,5,5,1,5,4,5,5,5,5,2,2,5,2,5,5,3,2,2,2,4,3,5,2,4,5,2,2,2,2,5,5,1,1,1,5,5,1,5,1,1,4,4,1,4,4,1,3,3,9,7,7,7,5,3,5,3,2,3,4,4,3,1,1,4,2,4,3,1,2,1,2,1,1,3,3,1,3,6,0,"ha jur",202.5,1,3,2,"Fear",3280,1,1,1,3,3,5970,1,2,1,3,4,1930,1,3,1,3,2,1110,1,4,1,5,1,1302,1,5,1,3,3,1052,1,6,1,50,202.5,1,150,112.5,1,6.06828077731651,16.8040950273374,1.3766359708038,3.81197281066689,2.53330218094662,7.01778387200606,0.103717176252129,0.280063083470679,0.966627686036286,2.66977914961971,0.0266195589095103,0.0703210274896408,"260009f52b816ef5fb39b6bfb76097154926a958d184413e9acd848da2eb2120",18,65,40,100,26,83.3333333333333,29,78.5714285714286,7.67,26.67,11.88,57.3883161512028,96.448087431694,91.015625,23
"Male",24,"økonomi",0,2,0,1,0,"Inactive",2,2,1,1,1,3,3,4,5,1,4,5,3,3,3,5,5,3,4,4,5,5,1,5,4,4,1,5,3,1,1,1,1,1,1,4,1,5,4,1,1,1,1,1,1,3,4,2,3,1,1,2,1,1,1,1,3,3,1,3,3,3,3,3,5,5,5,8,3,3,2,4,1,3,4,3,3,1,1,3,1,2,4,3,3,2,10,1,1,2,2,99,10,10,99,"ha jur",190,4,3,1,"Fear",5970,1,1,4,3,5,1930,1,2,4,2,5,1302,1,3,4,4,2,1052,1,4,4,4,2,1110,1,5,4,3,1,3280,1,6,2,100,190,2,200,150,1,8.21721118232006,10.0494352583905,3.03757933983975,3.70808898590824,1.98888917871624,2.42505547107222,1.65118610271136,2.02239991402275,0.177326199127155,0.20867535880066,0.463536356036531,0.575396207006296,"d29d6c5d0dd575da60ee6c4f44cb98bd0dc853e1aa15839cc698be87322951dc",22,85,22,43.75,28,91.6666666666667,31,85.7142857142857,11.01,17.68,12.8,86.0824742268041,55.5100182149362,100,15
"Female",47,"datamatik",2,1,0,0,0,"Active",3,3,1,1,1,3,4,5,4,1,4,5,NA,2,1,5,4,3,3,1,4,5,1,3,2,3,3,3,4,1,3,3,4,4,3,3,3,3,4,1,3,3,4,4,3,3,3,3,4,1,3,3,4,4,3,1,5,3,1,5,3,2,5,3,7,7,7,3,1,1,1,1,3,2,2,1,1,3,1,1,1,1,3,1,1,1,10,1,1,3,1,2,10,7,1,"datalogi",152.5,5,2,4,"Fear",1930,1,1,5,1,4,3280,1,2,5,3,3,1052,1,3,5,2,3,1110,1,4,5,1,3,5970,1,5,5,1,4,1302,1,6,1,100,152.5,3,150,112.5,1,0.710945080520628,6.00093806947335,0.520094937686856,4.40339531150741,0.991016175994841,8.37759076751395,0.43391123228848,3.655021414798,0.119476606720353,1.02203983026458,0.0488707190965055,0.415865785902391,"b3259c58467ee775d4acb9b5fd30846b218c09b480662974bb91281bba47c6b9",22,85,14,18.75,24,75,NA,NA,11.02,12.54,9.68,86.1683848797251,32.103825136612,69.53125,21
"Female",22,"økonomi",0,1,0,0,0,"Active",3,3,0,0,1,2,1,3,3,3,3,2,3,1,1,3,4,1,2,1,4,2,1,4,2,2,2,2,3,3,2,4,2,1,1,1,1,3,3,1,3,3,1,1,1,2,2,2,3,2,1,5,2,1,1,3,3,2,4,4,5,4,4,4,8,7,8,7,2,2,2,2,3,3,4,4,3,1,2,3,2,3,2,3,3,2,5,1,1,4,3,3,10,10,0,"ha jur",152.5,2,3,3,"Fear",1110,1,1,2,2,4,1930,1,2,2,3,3,1052,1,3,2,1,4,5970,1,4,2,4,3,1302,1,5,2,2,4,3280,1,6,2,100,152.5,1,150,112.5,1,1.21125098032878,5.0048481539968,0.277465082882604,1.14646521983125,0.631378397348619,2.61101945562795,0.235093231553876,0.97028062300605,1.63717913221055,6.76267139463741,0.185830461149743,0.767693390098342,"3dc1ff562f1d9ba73c16f9a85f302b39d687a1b2b27026bd2643154bbe1b09c5",13,40,12,12.5,18,50,21,50,5.82,7.33,9.4,41.4948453608247,8.37887067395264,66.796875,23
"Male",23,"økonomi",0,1,0,0,0,"Active",3,7,0,1,1,3,4,2,4,4,2,4,2,4,3,4,3,4,1,3,2,3,2,3,4,3,2,5,2,5,4,3,4,3,2,3,3,5,2,4,3,3,4,3,2,2,2,2,2,2,3,4,3,3,1,3,3,4,3,4,3,4,5,4,8,7,9,8,4,3,2,2,2,2,3,1,2,3,3,3,1,2,3,2,2,2,5,1,2,4,3,4,9,8,0,"ha jur",202.5,6,2,2,"Fear",3280,1,1,6,3,2,1110,1,2,6,3,3,5970,1,3,6,2,3,1302,1,4,6,2,4,1052,1,5,6,3,2,1930,1,6,2,50,202.5,3,150,112.5,1,0.585460346306441,3.25460202629653,0.378141723258611,2.06445222021023,0.75274552121426,4.22114690852293,1.35360175908981,7.56238794048341,0.432082152905803,2.41602698507035,0.333682859780473,1.88702042704786,"c7e1f76f20c6e2bf14ca78366db1b353b01f96fd310463b1f89e62a090c30cb7",12,35,27,59.375,20,58.3333333333333,22,53.5714285714286,4.85,19.13,7.6,33.1615120274914,62.1129326047359,49.21875,24
"Male",24,"kulturelle studier",1,1,1,0,0,"Inactive",5,4,1,1,0,4,4,4,5,4,3,3,2,3,3,5,3,3,4,3,4,2,2,3,3,2,1,4,4,1,1,1,1,1,1,2,1,4,5,1,1,1,1,1,1,3,2,4,3,1,1,1,1,1,1,3,5,5,4,4,3,4,4,3,9,7,8,10,4,3,2,3,2,4,5,2,4,1,5,5,2,5,1,2,2,2,7,2,3,4,4,2,10,4,0,"europæiske studier",190,3,3,2,"Neutral",1440,1,1,3,3,3,6930,1,2,3,2,2,9090,1,3,3,3,1,1510,1,4,3,4,1,2221,1,5,3,3,1,1460,1,6,1,100,190,2,200,150,1,1.23396669889157,5.30778385160685,0.566982500910201,2.43196464643361,0.158485724401262,0.656744733330364,0.241917506044297,1.02211816667618,0.146114453254525,0.616191012059951,0.136902801903474,0.564067429513395,"7a2904783ff29f7b39f1379b88c870154d71dbbd2dbee56972120e72e79e489b",18,65,25,53.125,22,66.6666666666667,24,60.7142857142857,7.72,18.14,8.18,57.8178694158076,57.6047358834244,54.8828125,24
"Male",25,"jura",1,1,0,0,0,"Active",3,7,1,1,1,4,5,4,2,4,1,3,1,5,3,3,3,4,1,4,1,3,4,3,4,3,2,4,3,3,3,5,2,2,2,4,2,4,3,1,3,5,1,1,1,1,2,2,3,1,3,5,1,1,1,2,4,3,5,5,3,5,5,3,7,8,7,5,2,4,2,3,1,3,4,3,3,1,4,5,2,4,1,3,1,1,6,2,1,4,3,4,8,6,0,"jura",215,2,2,3,"Disgust",3000,1,1,2,2,2,3400,1,2,2,2,2,2352.2,1,3,2,2,3,3150,1,4,2,3,1,3140,1,5,2,2,4,3010,1,6,2,0,215,1,100,75,1,0.956823975467928,5.90962017274653,0.374730814151072,2.30067260948452,0.0184703222797551,0.104326850128241,0.0302721967279985,0.204397074847934,0.103682869598087,0.648489150224196,0.284737897378117,1.7386836086365,"6a7470f1b2eacc377d1fd63dd115a6b4109b60881618caed15c3a92f0e7494e8",12,35,32,75,17,45.8333333333333,18,39.2857142857143,4.63,21.81,6.68,31.2714776632303,74.3169398907104,40.234375,22
"Male",21,"ingeniør",0,2,0,0,0,"Active",2,5,1,1,0,4,2,3,2,2,1,2,4,3,1,4,2,3,4,2,1,1,2,2,4,5,5,4,3,3,4,4,3,3,5,5,5,5,1,4,3,3,2,3,3,2,2,2,3,2,4,3,2,2,2,1,1,1,1,1,1,1,1,1,2,1,5,4,2,2,3,2,2,4,4,5,3,2,2,2,2,2,2,5,4,3,3,1,1,1,2,2,8,7,0,"ingeniør",208.75,6,3,4,"Disgust",3010,1,1,6,4,4,3000,1,2,6,5,5,3150,1,3,6,5,5,3400,1,4,6,1,5,3140,1,5,6,2,4,2352.2,1,6,2,25,208.75,3,125,93.75,1,1.42432013237103,4.6228110768222,0.183154218391781,0.59953428057773,0.134309962041199,0.442461253368508,1.21736886007096,3.94538789335357,1.42819601973342,4.63204097494675,1.62685594122496,5.27576184512155,"1bdd563ac645e403961ad26320c2434c56061d69927e806acf0377576d4b6611",13,40,21,40.625,11,20.8333333333333,15,28.5714285714286,5.51,13.84,4.62,38.8316151202749,38.023679417122,20.1171875,8
"Male",23,"fysik",0,1,0,0,0,"Active",2,10,1,1,0,3,2,4,2,2,5,2,3,1,2,5,3,4,2,2,1,5,1,2,1,5,4,3,2,3,1,1,4,4,2,5,4,3,2,2,5,1,2,2,1,3,4,3,2,1,5,1,1,2,1,3,3,3,3,3,2,4,4,4,3,7,5,3,4,2,4,1,3,3,4,3,1,2,2,2,3,1,2,99,99,99,2,1,1,1,1,4,7,6,0,"fysik",115,1,4,2,"Joy",2370,1,1,1,3,2,2050,1,2,1,4,1,1670,1,3,1,5,2,2341,1,4,1,4,1,1463,1,5,1,4,1,2091,1,6,1,100,115,1,100,75,1,2.23777201965265,8.30488936816345,0.502170958129131,1.84401453777089,0.406439686159136,1.54924085364242,0.0885681656098644,0.365040668189545,0.469441691188546,1.68532344169535,0.204634903473688,0.707415069927222,"28f91235b8b14da3c0bbaafeabe3419fd466895b22ca2224ab0239904e2ca3b0",21,80,16,25,12,25,15,28.5714285714286,10.5,11.49,5.28,81.7010309278351,27.3224043715847,26.5625,15
"Male",21,"datamatik",0,1,0,0,0,"Active",3,4,1,1,0,4,4,2,4,3,1,4,2,4,5,5,5,5,4,4,3,4,4,4,2,5,5,4,3,4,3,2,4,4,2,4,4,3,3,3,2,2,2,3,2,3,3,4,4,2,2,2,2,2,1,1,2,1,2,2,5,5,5,4,5,3,5,7,3,2,3,1,1,2,2,2,3,1,1,1,1,1,3,2,3,2,6,2,2,4,3,2,7,7,0,"it",133.75,5,3,1,"Neutral",2221,1,1,5,4,3,1510,1,2,5,3,2,9090,1,3,5,4,1,1440,1,4,5,5,2,1460,1,5,5,3,2,6930,1,6,1,100,133.75,3,125,93.75,1,1.72256555957677,6.02621102796213,0.178476287607788,0.596692040963779,0.0450162299576476,0.133328380182432,0.0156884549283831,0.0395215480147782,0.070920576608034,0.224566105985312,0.750730844513589,2.61660752686649,"1bab559e335cfdfae67da32e690f39b618754286db8b6c65089ad57e7b349362",16,55,31,71.875,24,75,26,67.8571428571429,6.78,22.61,10.4,49.7422680412371,77.959927140255,76.5625,13
"Female",24,"statskundskab",0,1,0,0,0,"Inactive",4,4,1,1,0,1,2,4,4,1,3,2,2,2,2,5,5,2,3,2,4,4,3,4,3,4,4,4,3,4,5,4,2,2,3,3,2,2,4,1,2,4,1,1,1,1,1,2,2,1,2,4,1,1,1,1,2,2,4,4,3,5,4,5,7,9,9,10,5,3,3,2,1,5,5,4,4,1,3,4,3,3,2,2,4,2,4,1,3,2,2,99,10,10,0,"statskundskab",190,4,3,3,"Neutral",9090,1,1,4,4,1,1510,1,2,4,2,1,6930,1,3,4,3,1,1460,1,4,4,4,1,1440,1,5,4,3,1,2221,1,6,2,100,190,2,200,150,1,4.41877666963524,12.9703308210044,0.248053366384697,0.755602466108757,0.203116188354656,0.577555764874499,0.354249653453254,1.03162973175947,0.0910831828924566,0.281120639746132,0.163483576110842,0.485906625720351,"f4cbb8066989a3fd81eb2d4ca9b569c5c5cdb4f5c4204cfb7e3dd61c7166a3ae",19,70,16,25,21,62.5,23,57.1428571428571,9.31,11.96,10.06,71.4776632302406,29.4626593806922,73.2421875,25
"Female",19,"psykologi",0,1,0,1,0,"Inactive",2,4,2,2,2,2,5,3,5,3,5,4,1,4,3,5,3,2,2,4,4,5,3,4,4,5,5,5,3,4,5,3,4,5,5,4,4,5,4,3,5,3,3,4,4,3,4,3,5,2,5,4,3,3,2,1,2,2,2,3,3,3,4,4,5,4,7,7,2,3,2,1,1,2,3,1,1,3,1,2,1,1,3,3,3,2,7,2,1,1,2,4,8,7,0,"psykologi",190,3,3,3,"Neutral",6930,1,1,3,3,2,2221,1,2,3,5,1,1460,1,3,3,2,3,9090,1,4,3,5,1,1510,1,5,3,5,2,1440,1,6,1,100,190,2,200,150,1,1.50638169812444,4.16014444545153,0.859973644510474,2.37571235510522,0.672534501604161,1.86895441324968,1.85715757906816,5.09646725665779,0.489205349606353,1.36237347633299,0.624572965110132,1.71391975142829,"c9dab7e85ddb1d2a62f385a8c7873fb40c5bb7af03829897d5c8e8a67dcc8f0a",20,75,25,53.125,25,79.1666666666667,26,67.8571428571429,9.72,19.11,9.58,75,62.0218579234973,68.5546875,16
"Male",22,"økonomi",1,1,1,0,0,"Inactive",3,5,1,1,1,4,4,4,4,2,3,5,2,3,4,5,5,4,4,3,3,5,2,4,4,4,4,4,2,2,5,2,1,2,2,2,2,1,2,1,5,2,1,2,1,2,1,1,1,1,5,2,1,2,1,2,4,3,3,4,4,4,4,2,8,9,9,9,5,2,4,2,3,4,4,4,3,4,4,4,3,3,2,4,3,2,8,3,1,4,4,4,9,9,0,"økonomi",190,4,2,4,"Disgust",3010,1,1,4,2,5,3150,1,2,4,1,5,3000,1,3,4,2,4,3400,1,4,4,2,4,3140,1,5,4,1,4,2352.2,1,6,2,100,190,2,200,150,1,3.12159347752532,8.46764535842954,1.27781867210839,3.46679521103226,1.07472654931169,2.9078155949633,0.280010297079855,0.755153034596337,1.16695262137607,3.17005077321926,1.71013222327907,4.64964417862739,"d7b51f89b996f8ba55b6130720aa53bb05baae90a2ebc704713632b26fd54012",21,80,26,56.25,25,79.1666666666667,27,71.4285714285714,9.98,19.75,10.82,77.233676975945,64.9362477231329,80.6640625,26
"Male",18,"gymnasiel",4,2,0,0,0,"Active",3,3,2,2,2,3,4,5,3,4,2,3,3,3,3,5,5,4,2,3,2,3,3,4,3,5,5,5,3,3,5,2,3,4,2,3,3,5,4,2,5,3,3,3,1,3,3,5,4,2,5,4,3,3,1,3,3,2,4,2,2,4,4,3,6,7,8,8,3,2,1,1,4,4,4,2,1,2,2,2,1,1,5,3,4,2,6,2,2,1,1,1,8,7,0,"stx",117.5,5,NA,2,"Disgust",3400,1,1,5,NA,4,3150,1,2,5,NA,4,3010,1,3,5,NA,5,2352.2,1,4,5,2,NA,3140,1,5,5,NA,5,3000,1,6,1,90,117.5,3,90,67.5,1,1.80049158035848,7.46381656292772,1.07078759025206,4.44573996656967,0.76153752132093,3.1493060893992,0.247016787575899,1.02880727137635,0.15778348476706,0.669385246873179,1.00313362060328,4.14769586196767,"2e9552991083e5fd8393b48eb2f448b30467321c740ceddcfec2763448e4044a",17,60,26,56.25,21,62.5,24,60.7142857142857,7.11,17.86,9.48,52.5773195876289,56.3296903460838,67.578125,21
"Female",24,"antropologi",1,1,1,0,0,"Inactive",4,0,1,1,0,5,2,5,2,1,5,5,2,1,1,5,4,1,4,3,3,5,3,5,3,5,5,2,2,2,1,2,4,4,4,4,4,3,2,1,4,1,4,3,4,4,2,4,2,1,2,1,4,4,2,1,2,2,1,2,2,1,2,2,5,5,5,10,4,3,3,3,3,5,4,3,3,4,4,2,3,2,3,4,4,3,10,2,2,2,2,2,10,10,0,"antropologi",152.5,2,5,1,"Joy",2341,1,1,2,4,2,1670,1,2,2,5,1,2091,1,3,2,5,2,2370,1,4,2,5,1,1463,1,5,2,5,1,2050,1,6,2,100,152.5,1,150,112.5,1,4.64634072498224,8.40105051254262,2.23452020816904,4.05208715948026,1.1575117419409,2.07947790145194,1.19123048801093,2.1534708927657,0.780701986525889,1.38149266894739,0.285202925751167,0.510684220194262,"1b11c46f7da6e4b1ed64041aed96e8e880d9c96b927297916e56f1a7aea73ce0",24,95,18,31.25,21,62.5,23,57.1428571428571,12.18,11.98,11.14,96.1340206185567,29.5537340619308,83.7890625,15
"Male",24,"økonomi",1,1,0,1,0,"Inactive",3,6,0,0,0,2,4,4,4,3,2,2,3,2,3,4,2,2,3,4,2,2,2,3,3,4,4,3,2,2,3,3,2,2,4,3,3,5,4,4,3,3,2,1,2,4,4,3,3,2,3,3,2,2,1,3,3,3,2,3,2,3,3,3,7,2,7,5,2,2,3,2,2,4,4,5,5,2,3,3,3,4,3,4,3,3,8,4,1,3,3,4,9,7,0,"ha jur",207.5,6,2,4,"Disgust",3140,1,1,6,2,3,2352.2,1,2,6,3,3,3010,1,3,6,3,4,3400,1,4,6,3,3,3000,1,5,6,3,3,3150,1,6,2,0,207.5,3,90,67.5,1,1.55271404459913,4.4215630631979,0.542911067437143,1.5261868279554,0.48034202001081,1.39330792689402,0.215062197916279,0.611731346995489,0.53636521955847,1.48832522379842,0.245999712105588,0.665348028860444,"545673a8bba6182be4dd4e3c423b547c0f320fa6cfda06adb5a9ae76bef36270",15,50,21,40.625,17,45.8333333333333,20,46.4285714285714,6.45,15.69,6.1,46.9072164948454,46.448087431694,34.5703125,16
"Female",20,"jura",0,1,1,1,0,"Inactive",3,3,2,1,2,4,5,4,5,4,3,2,1,5,5,5,3,4,2,4,2,4,2,2,4,4,5,2,1,3,2,4,2,1,1,3,1,3,2,1,1,4,1,1,1,3,1,2,1,1,1,4,1,1,1,5,5,5,3,3,2,5,3,4,7,5,4,9,4,4,2,1,1,2,4,2,2,2,1,2,2,3,4,4,3,2,10,2,1,3,4,2,9,9,0,"jura",202.5,1,1,4,"Disgust",3000,1,1,1,1,5,3140,1,2,1,1,5,3150,1,3,1,3,3,2352.2,1,4,1,1,4,3010,1,5,1,1,5,3400,1,6,1,50,202.5,1,150,112.5,1,0.991142623220792,7.38730967973981,0.432689145521589,3.19237160851129,0.427382152405291,3.14651919412526,0.449142665289213,3.37972728234446,0.0923943764432436,0.667102743774518,0.460518614841935,3.3977622943096,"bddddd665bd2d109b5c472cb7e3ee36a7beffc6bef5edd86be2790ad5b24fa3e",18,65,32,75,19,54.1666666666667,20,46.4285714285714,7.9,23.86,5.78,59.3642611683849,83.6520947176685,31.4453125,16
"Male",24,"økonomi",0,1,0,0,0,"Active",3,9,1,1,0,4,5,5,3,3,2,3,2,2,3,5,3,3,4,2,5,3,4,3,5,4,2,2,1,5,4,2,1,1,2,3,2,2,3,2,3,2,1,1,1,5,4,2,4,2,2,2,1,1,2,5,4,3,5,4,4,4,4,2,8,6,4,8,2,3,1,2,2,5,5,4,4,2,4,5,3,5,3,2,2,3,4,1,1,4,3,4,8,5,0,"økonomi",175,5,2,4,"Fear",1110,1,1,5,3,2,5970,1,2,5,3,3,1302,1,3,5,4,1,3280,1,4,5,3,4,1052,1,5,5,3,2,1930,1,6,1,10,175,3,60,45,1,1.70412353074945,7.49346143320229,0.752770097378364,3.31516560400549,0.771151097879424,3.38812870978469,0.211972404555776,0.938665801529438,0.919242929070326,4.04145383930389,0.316977139114178,1.39071134061271,"9bde6f54dcd5c451d82bcec33592fff862b442858c73b6845d1eb264a1d910c9",19,70,26,56.25,22,66.6666666666667,24,60.7142857142857,8.33,18.13,8.68,63.0584192439863,57.5591985428051,59.765625,18
"Female",22,"matematik",0,1,0,0,0,"Active",3,9,0,1,2,3,3,4,1,1,2,2,3,2,2,5,4,2,2,2,3,4,3,3,2,5,5,5,3,5,5,2,5,5,3,4,5,4,3,3,2,2,4,4,1,4,4,2,1,1,2,2,4,5,4,2,3,2,3,4,3,4,4,4,1,2,3,6,2,1,2,1,5,3,3,4,2,1,1,3,1,1,3,3,5,2,0,2,1,1,1,1,7,9,0,"matematik",135,6,3,2,"Disgust",2352.2,1,1,6,3,1,3010,1,2,6,1,3,3140,1,3,6,3,3,3150,1,4,6,3,3,3000,1,5,6,3,2,3400,1,6,2,50,135,3,60,45,1,2.5329384006916,6.85258355191118,2.00639380311184,5.43904673789587,0.670863614345017,1.82308321436055,1.45840047993004,3.95862028811342,1.07191322441962,2.90208853659606,0.894291193191197,2.42696015043078,"0bd35fbbce5a6a97193f19b6647fd498513173a85c74d0612f03aafdd4f3192d",17,60,17,28.125,16,41.6666666666667,19,42.8571428571429,8.15,12.2,7.92,61.5120274914089,30.5555555555555,52.34375,6
"Female",22,"økonomi",0,1,0,0,0,"Active",3,6,1,1,1,1,3,5,3,2,4,4,3,2,2,5,4,1,3,2,5,4,4,4,3,5,4,3,5,2,4,3,2,2,2,2,2,3,4,2,3,4,2,1,1,3,2,3,1,2,3,4,2,2,1,1,1,2,4,4,4,4,4,3,6,9,8,10,4,3,2,3,1,5,4,4,5,1,2,3,2,2,3,1,4,1,3,1,3,2,4,3,8,7,0,"erhvervsøkonomi",152.5,1,1,4,"Disgust",2352.2,1,1,1,1,5,3010,1,2,1,2,5,3400,1,3,1,1,5,3140,1,4,1,1,4,3150,1,5,1,1,5,3000,1,6,1,100,152.5,1,150,112.5,1,0.181922562270931,1.38184308120188,0.273588975185583,2.12862468708065,0.39487886003963,3.06486328239714,0.141024944265204,1.09981999157435,0.101730585886963,0.800266660234679,0.17159858062343,1.33367552134779,"dd95e5f558ec498faf7bd507d9388ec64434a0e9e06449f918a56a8be23f0331",21,80,17,28.125,23,70.8333333333333,26,67.8571428571429,10.16,11.82,10.74,78.7800687285224,28.8251366120218,79.8828125,23
"Male",23,"statskundskab",1,1,0,0,0,"Active",5,3,1,1,1,4,5,2,4,4,2,3,4,5,4,5,3,5,2,5,5,5,4,4,5,1,1,4,1,3,4,3,1,1,1,1,1,4,1,3,4,3,1,1,1,2,2,3,1,2,4,3,1,1,1,3,3,5,4,4,5,5,4,5,10,8,7,10,5,3,5,5,1,5,5,5,5,1,4,3,4,5,3,1,2,1,9,2,3,4,4,4,9,10,0,"statskundskab",202.5,2,5,1,"Neutral",1510,1,1,2,3,2,2221,1,2,2,5,1,1440,1,3,2,2,3,6930,1,4,2,2,3,9090,1,5,2,5,1,1460,1,6,2,50,202.5,1,150,112.5,1,2.0373798398485,5.57947559588293,1.36535726714945,3.76368075780887,0.828756494650012,2.23269633496767,0.977370216762171,2.65184243881631,1.26017911685243,3.45395469732329,0.60033243154446,1.63250673530257,"9410f0305388c5f5693f0555affc5999163ab54b186997d81850e2c4bcb30040",16,55,36,87.5,24,75,28,75,6.81,25.29,9.66,50,90.1639344262295,69.3359375,25
"Female",21,"psykologi",0,1,0,0,0,"Active",3,3,1,1,2,3,2,4,5,4,5,4,3,4,3,5,3,3,2,4,2,4,2,3,5,5,5,2,3,2,3,3,4,4,1,4,3,2,4,1,1,3,4,3,1,3,4,1,2,1,1,4,4,2,1,2,3,2,4,3,2,4,4,2,7,7,7,9,3,2,1,1,3,4,3,1,1,4,3,2,1,1,5,2,4,2,7,1,1,3,3,2,9,7,0,"psykologi",175,4,2,4,"Neutral",6930,1,1,4,3,2,2221,1,2,4,4,1,1440,1,3,4,4,2,1510,1,4,4,2,2,9090,1,5,4,2,3,1460,1,6,2,100,175,2,180,135,1,0.599519760262647,4.62844281482799,0.643365332346623,5.00801032541328,0.062001103844927,0.520754786750754,0.0783819409901681,0.605417146337703,0.0477724140770597,0.359465850493004,0.7750497228993,5.94134057265895,"64f9016face31a2dedba83a7d9396f3ceddffd623fed971ebddeaf0bcd66ecb1",20,75,28,62.5,19,54.1666666666667,22,53.5714285714286,9.32,18.64,7.6,71.5635738831615,59.8816029143898,49.21875,21
"Male",25,"økonomi",99,1,0,1,0,"Inactive",3,6,1,1,1,4,4,3,3,2,3,3,2,4,4,5,4,3,2,3,4,5,2,4,4,4,4,5,5,4,5,4,2,2,4,4,4,4,4,2,5,4,2,2,2,3,3,3,4,2,5,4,2,2,2,2,5,2,2,5,1,4,5,1,7,7,7,8,4,3,4,2,3,4,4,4,3,3,2,4,3,4,3,4,4,2,3,1,1,4,4,1,7,8,0,"erhvervsøkonomi",195,3,1,5,"Disgust",3010,1,1,3,1,5,2352.2,1,2,3,1,5,3000,1,3,3,1,5,3140,1,4,3,1,5,3400,1,5,3,1,5,3150,1,6,1,80,195,2,180,135,1,1.44788714356128,12.093072403648,0.26525443653208,2.23861728614242,0.758519053825367,6.28181129515191,0.263609268454205,2.19061883276879,0.109066172309763,0.913903847013252,0.0839615833600343,0.698761185878411,"64e417ffb09864c07335146567ce26614ab7e586d240984e1ed5e371a1ee2c79",18,65,26,56.25,22,66.6666666666667,24,60.7142857142857,8.62,19.4,9.82,65.5498281786942,63.3424408014572,70.8984375,21
"Female",22,"økonomi",0,1,0,0,0,"Active",4,5,1,1,1,3,1,5,5,2,5,3,4,2,1,5,3,1,3,4,3,5,4,4,4,3,4,2,2,4,4,2,3,3,4,3,1,3,1,2,2,3,4,3,2,4,4,3,3,2,3,3,2,2,1,2,1,2,4,3,3,5,4,3,7,8,6,8,4,2,1,2,2,5,4,3,3,3,4,3,3,2,3,2,3,2,5,2,1,3,2,4,7,6,0,"ha jur",195,6,1,5,"Disgust",3150,1,1,6,2,4,3010,1,2,6,1,4,3000,1,3,6,2,3,3400,1,4,6,2,4,3140,1,5,6,2,5,2352.2,1,6,2,80,195,3,180,135,1,0.917500479906278,7.83984494524304,0.817215499320139,6.98449298353705,0.347577537226556,2.9722152821536,1.00407465467318,8.58475086492295,0.348571250226212,2.98155403741447,0.273624574619096,2.33676255228883,"10ea444f961d3c5865b732b005fcce8dd717b8977c79b998c6f565023b923f2f",23,90,21,40.625,19,54.1666666666667,23,57.1428571428571,11.41,13.59,8.66,89.5189003436426,36.8852459016393,59.5703125,21
"Male",21,"-",0,1,0,0,0,"Active",1,4,0,0,0,2,3,3,3,2,2,4,4,2,2,4,3,2,2,4,2,2,3,3,4,4,4,4,4,3,3,4,4,4,1,3,3,4,4,3,3,4,4,4,1,3,3,4,4,2,3,4,4,4,1,4,4,2,4,4,2,4,4,3,7,8,8,7,1,2,1,1,2,1,2,1,1,2,1,1,1,1,2,2,2,2,99,1,1,2,2,4,99,99,0,"-",175,5,3,3,"Fear",1110,1,1,5,3,3,3280,1,2,5,3,4,5970,1,3,5,4,2,1302,1,4,5,4,2,1052,1,5,5,2,2,1930,1,6,1,100,175,3,180,135,1,2.26218147022879,9.03588605482798,0.680751279871686,2.69903092609499,0.465210829056492,1.83948672912502,1.22612122721958,4.85264294019813,1.35854613543034,5.41211735728828,1.12661632821135,4.43211446799639,"792ea9d85eff7309845d14d0c136402572d8a83674b32a05f7c11571571dcf91",13,40,21,40.625,18,50,22,53.5714285714286,5.86,14.67,7.6,41.8384879725086,41.8032786885246,49.21875,23
"Female",25,"statskundskab",2,1,1,0,0,"Inactive",3,4,1,1,1,2,2,5,2,3,2,3,2,2,2,5,5,3,3,5,2,4,2,3,1,3,2,4,3,2,2,2,2,2,2,2,2,3,4,3,3,3,2,2,2,2,1,2,2,3,3,2,2,2,1,4,3,3,4,3,3,4,4,3,7,7,7,8,5,4,4,3,2,5,5,4,3,2,4,4,4,4,3,3,4,3,7,2,99,4,4,3,7,7,0,"statskundskab",190,1,2,3,"Disgust",3400,1,1,1,2,3,3140,1,2,1,2,4,3150,1,3,1,2,4,2352.2,1,4,1,1,5,3000,1,5,1,2,4,3010,1,6,1,100,190,1,200,150,1,0.723045743007142,3.8919863541533,0.25464286924434,1.37118411596123,0.318152906226847,1.72402693753954,0.701241063701724,3.77953623328601,2.06488556601846,11.107140685455,0.569411992557055,3.06561327953188,"8a94c6ae5a877369b99d13e1a6ddb29482aae386ca9947a94aa58e4fcfad38a4",19,70,20,37.5,17,45.8333333333333,19,42.8571428571429,8.42,13.38,8.5,63.8316151202749,35.9289617486339,58.0078125,21
"Male",24,"psykologi",1,1,0,1,0,"Inactive",4,4,1,1,1,4,4,2,4,2,2,3,1,5,4,4,2,4,1,4,2,1,3,2,4,4,4,5,3,4,5,3,1,3,3,4,3,4,3,2,4,2,2,3,2,5,5,3,2,2,2,3,4,4,1,1,3,2,3,3,2,3,3,3,8,9,8,7,1,2,2,1,2,3,5,3,3,2,1,2,2,2,4,3,3,3,9,3,1,4,1,2,99,99,0,"psykologi",190,2,3,2,"Fear",1930,1,1,2,3,2,3280,1,2,2,2,3,1052,1,3,2,2,3,1110,1,4,2,3,1,5970,1,5,2,2,3,1302,1,6,2,100,190,1,200,150,1,0.106374225831871,2.06258149814277,0.0971925413972778,1.85485767666313,0.335226053183808,6.49585338400589,0.209173602545127,4.036276818462,0.0153362923237307,0.291994167640202,0.211489946531134,4.06088885656823,"a49329d65d4b9ba959b5472dc8399e2eb979f3608eaf035d70401e789fb1342e",10,25,30,68.75,17,45.8333333333333,18,39.2857142857143,4.41,22.39,5.54,29.3814432989691,76.9581056466302,29.1015625,25
"Male",27,"datamatik",2,1,0,0,0,"Active",3,7,1,1,0,NA,NA,NA,NA,NA,NA,NA,NA,NA,NA,NA,NA,NA,NA,NA,NA,NA,NA,NA,NA,4,3,2,5,4,3,3,2,3,2,2,2,3,4,3,3,4,2,2,3,3,3,3,4,2,4,3,2,3,2,4,4,3,5,5,3,4,4,2,4,6,5,4,2,2,3,1,4,2,4,4,2,2,2,3,1,1,5,3,4,2,4,3,1,4,4,1,6,7,0,"it",158.75,4,3,3,"Neutral",2221,1,1,4,4,2,1510,1,2,4,2,4,6930,1,3,4,5,1,1440,1,4,4,3,1,9090,1,5,4,4,2,1460,1,6,2,75,158.75,2,125,93.75,1,1.28458069281522,8.58661427918021,0.457036250551504,2.98505451784558,0.519170354566698,3.46477748208135,0.506942739186831,3.33864845167132,0.269515008455946,1.734034493456,0.261408384886915,1.73328073585603,"2b1f286f19f83231a06b223511360f99eb181ae1541ca238dda38fc0d8b856cb",NA,NA,NA,NA,NA,NA,NA,NA,NA,NA,NA,NA,NA,NA,15
"Male",26,"kommunikation",1,1,1,1,0,"Inactive",4,8,1,1,0,5,4,3,5,2,5,2,2,5,3,5,2,3,4,3,3,4,4,2,4,3,3,1,1,1,2,1,2,3,1,2,3,2,1,1,2,1,2,2,1,4,2,3,1,1,2,1,2,2,2,3,4,3,2,4,3,2,3,2,10,7,4,7,3,2,3,3,2,4,4,3,4,2,4,4,3,5,3,4,2,5,7,2,1,2,3,4,10,10,0,"virksomhedskommunikation",183.75,3,4,3,"Neutral",1440,1,1,3,4,1,2221,1,2,3,2,5,6930,1,3,3,2,2,1460,1,4,3,3,3,1510,1,5,3,1,2,9090,1,6,1,50,183.75,2,125,93.75,1,1.16842948393494,8.5411016494679,0.652879138764029,4.80432195225583,0.106811655315527,0.695363814376603,0.10136806038013,0.692292344218291,0.0533665676796133,0.326095837658199,0.0892676558148606,0.670488910128647,"14604710e85966f76d62d5a55d05adfbf39b641d710ee4627d64af43eed9aaff",21,80,29,65.625,18,50,20,46.4285714285714,10.4,21.5,5.62,80.8419243986254,72.9052823315118,29.8828125,21
"Male",20,"99",99,1,1,1,0,"Inactive",4,3,1,1,2,2,4,3,2,5,1,1,2,3,2,5,5,2,1,4,2,2,2,3,2,4,2,2,2,1,2,3,1,2,1,5,2,3,1,1,1,3,1,1,1,5,5,5,3,1,1,3,4,3,1,2,2,2,3,3,2,4,4,2,8,6,7,8,5,3,2,1,1,5,4,2,1,1,5,5,1,1,3,2,2,2,7,2,2,4,4,3,9,8,0,"naturvidenskab",171.25,3,2,4,"Disgust",3000,1,1,3,4,2,2352.2,1,2,3,3,4,3400,1,3,3,3,4,3010,1,4,3,3,2,3150,1,5,3,2,2,3140,1,6,1,100,171.25,2,175,131.25,1,3.81462575167573,10.8060548456394,2.21244714205041,6.26843348003581,0.907795764981064,2.5707993216476,0.372309040994649,1.0473414111104,0.215846813596006,0.609147193191156,0.898940003225692,2.55350222325041,"01ddd5063d432fab5e29a3cd354abf524881b256d2220d0ca9a36de01242902a",12,35,22,43.75,17,45.8333333333333,19,42.8571428571429,4.17,14.45,7.66,27.319587628866,40.8014571948998,49.8046875,21
"Female",27,"biologi",1,1,0,1,0,"Inactive",4,2,1,1,1,5,2,3,3,4,4,4,4,5,4,5,4,4,2,3,1,4,3,2,2,5,4,5,2,2,3,4,3,5,1,2,3,3,1,2,1,3,2,4,1,2,3,3,1,2,1,3,3,4,1,1,1,1,4,2,3,5,2,3,3,8,8,9,2,2,1,2,1,1,3,2,3,2,1,1,2,2,2,1,5,4,10,2,1,2,2,2,8,8,0,"molekylorbiologi/datamatik",160,5,4,1,"Joy",2341,1,1,5,4,1,2050,1,2,5,4,1,1463,1,3,5,4,1,2370,1,4,5,5,1,2091,1,5,5,4,1,1670,1,6,1,100,160,3,160,120,1,1.25587681918356,4.04560131164489,0.419405229774926,1.38910572643392,0.917089880571793,2.91767074298284,0.0567900003569089,0.193836409691388,0.0542455167695486,0.137624633906034,0.0424704089430319,0.169771482978225,"794d68c893e20b6e624af5e122fd0623f43eacf4b9236f37cea9938a0e30a331",18,65,30,68.75,16,41.6666666666667,20,46.4285714285714,8.15,19.73,6.78,61.5120274914089,64.8451730418943,41.2109375,19
"Female",39,"informationsvidenskab",1,2,0,0,0,"Active",3,4,1,1,1,NA,NA,NA,NA,NA,NA,NA,NA,NA,NA,NA,NA,NA,NA,NA,NA,NA,NA,NA,NA,3,5,4,3,2,2,3,3,3,2,3,4,3,2,2,2,3,3,3,2,2,2,2,2,1,1,3,2,1,1,5,4,3,5,4,3,5,4,4,6,6,6,6,4,4,4,3,3,4,4,4,3,2,4,4,4,3,3,2,2,2,5,2,3,3,3,4,99,99,99,"biblioteks- og informationsvidenskab",196.25,4,3,2,"Fear",1302,1,1,4,2,3,5970,1,2,4,2,3,1052,1,3,4,3,3,1930,1,4,4,2,3,1110,1,5,4,1,4,3280,1,6,2,75,196.25,2,175,131.25,1,3.28605732055066,8.39464685622046,0.844940269746729,2.15863817401327,1.8458648438021,4.71536184730789,0.326574631758437,0.834581784622155,1.09363111193847,2.79357059216095,2.82565497209533,7.21869283470524,"b4fb24987d90f449e3e79c59784b15fe544c50e173bcce21cf89c4bff21e8647",NA,NA,NA,NA,NA,NA,NA,NA,NA,NA,NA,NA,NA,NA,18
"Male",19,"statskundskab",0,1,1,0,1,"Inactive",4,4,1,2,2,2,2,4,4,2,3,3,2,5,3,4,3,2,4,3,4,4,3,4,3,2,2,2,2,2,2,1,1,1,1,3,3,3,2,2,2,1,1,1,1,4,4,2,2,2,2,1,1,1,1,4,3,3,4,4,4,4,4,4,7,7,7,7,5,4,4,4,2,5,4,4,4,2,5,4,4,4,2,1,2,1,8,1,2,3,3,4,8,7,0,"statskundskab",152.5,2,2,4,"Disgust",3400,1,1,2,3,3,2352.2,1,2,2,2,3,3140,1,3,2,3,2,3010,1,4,2,3,2,3150,1,5,2,3,1,3000,1,6,2,100,152.5,1,150,112.5,1,2.07679677633331,8.23795510529498,0.414082583327704,1.64830027094607,0.686183912747916,2.71247147217175,0.378373974516132,1.501042470252,0.245786508751819,0.973015828378593,0.254423568253904,1.00963377112176,"06bd4f87f89b4621cb6e568c06cfe97f56edab22bbc1f6f1d75764b138a9da77",19,70,23,46.875,20,58.3333333333333,22,53.5714285714286,9.01,16.44,9.16,68.9003436426117,49.8633879781421,64.453125,21
"Male",27,"økonomi",1,1,0,0,0,"Active",4,7,1,1,1,4,5,5,5,2,3,5,2,5,5,5,3,3,2,5,3,3,4,3,4,4,3,4,2,3,4,3,2,2,2,3,3,3,3,3,5,3,3,3,2,3,2,2,3,4,5,3,3,3,3,2,3,2,3,3,3,2,3,3,7,5,5,5,3,2,2,4,3,4,4,3,4,3,3,3,3,3,4,4,5,3,8,3,1,3,3,3,8,8,0,"strategi, organisation og ledelse",202.5,1,4,1,"Neutral",1510,1,1,1,3,1,1440,1,2,1,2,1,2221,1,3,1,3,2,9090,1,4,1,3,2,6930,1,5,1,3,1,1460,1,6,1,50,202.5,1,150,112.5,1,2.02994213230939,16.1796647895979,0.435572554120049,3.48423974692468,0.529504989674489,4.20351144281391,1.84817266026625,14.7308265449871,0.0973198240497515,0.751756110394671,0.354120108782772,2.84104516374039,"d7b4b8b526d9666f9b9017d0fb4fe93a897dde7ee7ab7937009ec645e6aed51b",18,65,32,75,24,75,26,67.8571428571429,8.46,24.53,8.52,64.1752577319588,86.7030965391621,58.203125,17
"Female",23,"biologi",0,3,0,1,0,"Inactive",3,3,1,1,1,3,3,3,3,4,2,2,3,3,3,4,3,3,2,3,3,2,3,2,2,4,4,4,4,2,4,2,3,2,2,2,3,4,4,3,4,3,2,2,1,3,3,3,3,2,3,3,2,2,1,1,1,2,2,2,3,3,3,3,5,6,7,7,2,2,2,2,3,1,3,2,3,3,1,2,1,1,4,3,4,2,8,99,1,2,1,4,10,8,0,"biologi",200,6,2,2,"Neutral",6930,1,1,6,4,4,1440,1,2,6,3,4,1510,1,3,6,3,4,1460,1,4,6,2,NA,9090,1,5,6,3,3,2221,1,6,2,60,200,3,160,120,1,0.988667169121157,12.49551695729,0.625041668090849,7.96582730157778,0.089040898223547,1.17101229582921,0.124494531041711,1.52508468806121,0.0372908285654153,0.513756302949695,0.130774325866494,1.61277544026648,"29aea7157084f3f9c9e45711803a2410d08d9932eb2af1ee038263ad9d5404c7",13,40,24,50,16,41.6666666666667,19,42.8571428571429,5.22,16.02,6.28,36.340206185567,47.9508196721311,36.328125,18
"Male",24,"sprogvidenskab",0,1,0,1,1,"Inactive",3,3,0,0,0,3,5,4,4,5,3,3,2,5,4,5,3,3,2,5,3,2,5,3,5,5,5,5,4,3,2,1,1,2,1,5,5,5,5,5,2,1,2,2,4,3,3,5,99,3,2,1,1,1,1,1,2,2,2,2,1,2,2,1,0,0,0,10,4,4,5,3,2,4,3,5,3,2,3,2,3,3,4,5,5,3,5,2,2,4,4,3,5,5,0,"journalistik",209.5,1,3,NA,"Neutral",2221,1,1,1,4,2,1460,1,2,1,3,2,1510,1,3,1,3,2,1440,1,4,1,4,1,9090,1,5,1,3,2,6930,1,6,1,22,209.5,1,122,91.5,1,0.0965715606830533,1.52874749900511,0.180426284682575,2.84281963684547,0.0135825013782159,0.220013891128948,0.0628746521014795,0.981885442994583,0.0810147759012689,1.29036069513632,0.0205305949583595,0.323501097862456,"8cb1c26c715e60dd0fd08ecb55e91d1d9759edde55d4ff6658cc4725741cf975",16,55,35,84.375,21,62.5,23,57.1428571428571,6.5,23.54,7.68,47.3367697594502,82.1948998178506,50,0
"Male",22,"økonomi",0,1,0,0,1,"Inactive",2,8,1,1,2,3,4,5,4,2,4,4,3,4,4,3,2,3,2,3,4,5,3,4,5,4,4,5,2,3,5,1,2,2,3,3,3,4,3,4,5,2,1,1,2,2,3,3,1,2,3,3,2,1,1,1,3,4,4,2,3,2,2,4,2,6,6,8,5,4,3,4,3,3,4,2,4,3,2,3,2,4,3,3,4,2,7,2,1,3,3,2,7,8,0,"erhvervsøkonomi",131.5,2,4,NA,"Neutral",1460,1,1,2,2,3,9090,1,2,2,4,5,1440,1,3,2,3,2,1510,1,4,2,NA,3,2221,1,5,2,5,3,6930,1,6,2,100,131.5,1,122,91.5,1,NA,NA,NA,NA,NA,NA,NA,NA,NA,NA,NA,NA,"5a467be7359c65a2cc998290b75b0e858a2718350f6a646a0b3b1571aa29c620",19,70,27,59.375,22,66.6666666666667,25,64.2857142857143,9.39,19.99,8.92,72.1649484536083,66.0291438979963,62.109375,14
"Male",28,"biologi",1,1,0,0,0,"Active",2,7,0,1,1,4,4,3,4,4,2,4,1,4,4,3,4,4,3,4,3,2,2,4,4,5,5,4,3,4,4,3,4,4,2,4,4,5,4,3,4,3,3,3,2,4,4,4,5,3,4,3,3,4,1,1,2,3,2,3,3,2,3,3,3,4,4,7,3,2,3,2,3,3,3,3,2,3,2,2,1,1,4,2,4,3,3,3,1,4,4,4,8,7,0,"bioteknologi",190,4,3,3,"Fear",1052,1,1,4,3,2,1930,1,2,4,3,1,5970,1,3,4,2,1,1110,1,4,4,3,2,1302,1,5,4,2,2,3280,1,6,2,100,190,2,200,150,1,1.33288479821656,4.87726183242828,0.915296098427197,3.34141410901214,0.87716106073529,3.21830049033526,0.735071249038795,2.7024919047678,0.384634045564534,1.42034307745815,0.475325235722128,1.73716571639995,"84c044646405710afd63d5e10c19b2f7798d16f363fd657ff3e778b6485fcb8f",13,40,30,68.75,23,70.8333333333333,24,60.7142857142857,5.24,21.24,9.74,36.5120274914089,71.7213114754098,70.1171875,11
"Female",21,"psykologi",0,3,0,0,0,"Active",4,3,2,2,2,2,3,4,4,2,4,2,4,4,3,5,3,4,3,5,2,4,5,2,3,5,5,2,1,2,5,3,2,1,1,1,1,3,1,1,1,2,2,2,1,5,5,3,3,1,1,2,2,2,1,1,2,2,4,4,1,4,2,1,7,5,NA,6,2,1,5,1,1,4,5,5,4,1,3,4,5,3,1,3,3,3,7,1,1,2,3,4,8,8,0,"psykologi",190,3,2,4,"Disgust",2352.2,1,1,3,2,4,3400,1,2,3,3,4,3000,1,3,3,3,3,3010,1,4,3,2,4,3140,1,5,3,2,4,3150,1,6,1,100,190,2,200,150,1,0.553640526707707,2.21302929641072,0.435950464881372,1.69265666790877,0.694721658715071,2.74214536175249,2.13911059028566,8.47132493931703,0.270545463864376,1.04077780561952,0.114574072885566,0.432763855597681,"4913415befc5cea815c816c33aa8929aaf05eaec85fc9ef7b7592c0f60677eb0",20,75,28,62.5,16,41.6666666666667,20,46.4285714285714,9.7,19.91,5.78,74.8281786941581,65.6648451730419,31.4453125,NA
"Male",24,"økonomi",1,1,0,0,0,"Active",3,4,0,1,0,5,5,5,4,5,4,5,2,5,4,5,4,4,4,5,3,3,3,3,4,5,5,4,4,3,5,4,4,4,4,5,5,4,4,3,5,4,4,4,4,5,5,4,4,3,5,4,4,4,1,2,2,3,3,3,3,4,4,4,3,4,5,5,1,1,1,1,1,1,1,1,1,1,1,1,1,1,1,3,2,4,10,1,1,2,2,1,8,9,0,"erhvervsøkonomi",177.5,5,1,5,"Disgust",3400,1,1,5,1,5,3000,1,2,5,1,5,3010,1,3,5,1,5,2352.2,1,4,5,1,5,3150,1,5,5,1,4,3140,1,6,1,0,177.5,3,50,37.5,1,1.59086905622863,5.04709718437079,0.663615801483698,2.09974142978203,0.0632757767421781,0.193625636974674,0.740583842061447,2.34310880196458,0.256458833356906,0.813108415729514,0.185509495826181,0.58694724695111,"9b61bcb66c651c20fbf22abaafcbedf849836f7f97d8e853b98d8afb93273080",21,80,35,84.375,24,75,26,67.8571428571429,9.11,24.34,9.18,69.7594501718213,85.8378870673952,64.6484375,12
"Male",23,"statskundskab",1,1,0,1,0,"Inactive",4,7,1,1,1,4,4,4,3,2,2,4,3,4,3,4,2,3,2,3,3,3,2,3,5,3,3,2,2,2,2,3,1,1,1,2,1,2,2,2,2,4,1,1,1,2,2,1,2,1,2,4,1,1,1,3,4,4,4,5,5,5,5,5,8,9,9,8,4,4,4,3,2,3,4,3,3,2,3,3,3,3,3,2,3,2,5,3,2,4,3,2,8,5,0,"statskundskab",122.5,3,2,4,"Disgust",3010,1,1,3,2,3,3400,1,2,3,3,5,3140,1,3,3,1,5,3000,1,4,3,3,3,2352.2,1,5,3,2,3,3150,1,6,1,100,122.5,2,110,82.5,1,2.64223734384471,6.93294700153054,0.419823721678987,1.10210068371077,0.893420921378238,2.29177936562278,0.403689152574201,1.08039278788085,2.83705952408085,7.40464299220853,0.976407451830828,2.56416610987433,"f010bf4fe3615cf7f30b8fcab0bd47171ffa0e65c0bff309128a6485cd0ade73",15,50,26,56.25,19,54.1666666666667,22,53.5714285714286,6.86,19.05,7.44,50.4295532646048,61.7486338797814,47.65625,26
"Female",24,"psykologi",1,1,0,1,0,"Inactive",3,3,1,1,1,3,4,4,4,4,5,4,2,3,2,5,3,2,3,3,4,4,3,3,2,5,4,2,2,1,2,2,2,2,1,3,2,3,3,1,2,2,1,1,1,2,1,3,2,1,2,2,1,1,1,3,2,3,3,2,3,4,3,3,7,7,8,10,2,3,1,2,1,2,4,3,3,2,1,3,1,2,2,2,2,2,9,2,2,3,3,3,8,8,0,"psykologi",171.25,2,4,1,"Neutral",1440,1,1,2,3,2,6930,1,2,2,3,2,2221,1,3,2,4,1,1510,1,4,2,2,2,9090,1,5,2,5,1,1460,1,6,2,100,171.25,1,175,131.25,1,2.36153140556614,12.8327758536126,1.24517819799751,6.73667774192696,0.129666501142625,0.699905184792816,0.169477901185846,0.910156975727503,0.0380096663850192,0.236300641183409,0.107546120769283,0.576435596378659,"f4d87b05bf74283c2a2b5d41b85fcbccc50388d9775b97fcf6c1fd6063b965be",21,80,22,43.75,22,66.6666666666667,24,60.7142857142857,9.77,15.5,8.6,75.4295532646048,45.5828779599271,58.984375,22
"Female",23,"science",0,3,0,1,0,"Inactive",3,3,0,2,0,4,4,5,4,3,4,3,5,5,4,5,4,5,4,5,3,4,4,4,5,5,4,3,3,4,3,3,2,3,1,3,2,4,2,3,3,4,3,2,1,3,2,1,1,2,2,3,2,2,1,3,3,4,4,4,4,4,4,4,7,8,8,7,2,3,3,2,3,3,3,1,1,3,1,2,2,2,2,2,2,2,8,1,1,3,3,3,6,6,0,"molekylær medicin",127.5,6,4,2,"Joy",1463,1,1,6,3,1,1670,1,2,6,4,1,2091,1,3,6,3,2,2341,1,4,6,3,3,2050,1,5,6,3,2,2370,1,6,2,50,127.5,3,50,37.5,1,1.47743352193241,10.5410479039725,1.0066036314301,7.24406703968767,0.0749833136127529,0.572207514717515,0.0958631535161129,0.708943381665788,0.16184484429272,1.19655550001853,0.114942424389616,0.783315902132004,"58455ddccb703b6899572afd02810fc32bb62f0956f18e3592453b43cd8f6fee",22,85,35,84.375,22,66.6666666666667,27,71.4285714285714,10.29,24.65,9.32,79.8969072164949,87.2495446265938,66.015625,23
"Female",24,"sundhedsvidenskab",1,1,0,0,0,"Active",3,6,1,1,1,3,5,5,4,2,3,2,4,4,3,5,3,3,2,4,4,3,4,2,4,4,4,3,2,3,3,3,2,3,2,2,2,1,2,1,1,3,2,2,1,1,2,1,2,1,1,4,2,2,1,3,2,2,3,3,2,4,4,2,4,6,5,8,3,3,1,2,2,4,4,1,3,2,2,2,1,2,3,2,2,2,7,2,3,3,3,3,7,7,0,"folkesundhedsvidenskab",212.5,4,2,4,"Disgust",2352.2,1,1,4,2,4,3000,1,2,4,2,4,3400,1,3,4,1,5,3150,1,4,4,1,4,3010,1,5,4,2,3,3140,1,6,2,10,212.5,2,110,82.5,1,1.4977792977679,15.5730143363112,0.348705797012393,3.58653691387794,0.0438635700779385,0.4661974411185,0.0423087284369825,0.381841789278337,0.62433891269688,6.56148086824063,0.563620197857772,5.8269552740001,"ec446419a7cfdb42452db5c17dcf4c0138a66fd0f46d7564c31b902f8c0536cd",18,65,27,59.375,20,58.3333333333333,24,60.7142857142857,8.46,20.44,6.78,64.1752577319588,68.0783242258652,41.2109375,15
